AccX (g),AccY (g),AccZ (g),GyroX (deg/s),GyroY (deg/s),GyroZ (deg/s),Heel ADC0,MidFoot ADC1,Toe ADC2,LABEL
-788.6089921448166,378.0078121955937,-185.84820477301128,317967.4294364483,189953.23751061072,99543.42562126194,0,2010,1458,4
-731.7456118445817,350.44889319740304,-165.42956842057654,326996.91103722836,190016.1413772256,114613.06405314669,0,2009,1452,4
-675.5934832960849,324.2815648981788,-144.4003679165324,335947.8798667803,190165.24802768748,130070.82835385206,0,2009,1455,4
-620.7149442853039,299.7128607941644,-122.9205982132167,344739.2100272606,190426.53791202867,145859.13361194945,0,2010,1454,4
-567.6556561440476,276.97519292246847,-101.13301397396258,353294.7795035211,190823.4540835412,161920.50526042166,0,2012,1454,4
-516.9193644017429,256.3271984787229,-79.1436045346423,361547.2694044431,191374.67733385105,178199.62861681118,0,2010,1454,4
-468.95911557341145,238.02819312475552,-57.02009121594475,369439.5092936612,192092.50930361732,194644.68538003325,0,2010,1452,4
-424.18379229471066,222.29371541904027,-34.811891776668446,376923.9111914492,192982.19265806171,211208.37323448,0,2009,1452,4
-382.9678873551026,209.2562088746118,-12.574319190206566,383961.2724464044,194042.09809192942,227848.11207609205,0,2010,1451,4
-345.65642234574494,198.9470653571195,9.618567958458154,390519.83724232856,195265.00428508996,244525.0072216379,0,2009,1451,4
-312.56349772974437,191.2954516669612,31.67230264347679,396575.0879192772,196640.37750982272,261202.5098717212,0,2009,1452,4
-283.9690861709516,186.1355054308922,53.47307596476272,402109.9470708847,198156.55972847724,277845.1454977796,0,2010,1452,4
-260.1171616072653,183.22021450719916,74.88896946613755,407115.3588995939,199801.9945469425,294417.5055279155,0,2010,1451,4
-241.2139931464562,182.24308493597496,95.77603625977001,411591.6097708217,201565.7614185409,310884.0908229396,0,2010,1453,4
-227.42664542015157,182.86248049377608,115.9913871561247,415549.74619272846,203437.7758845606,327209.37873688375,3,2010,1452,4
-218.88168153628348,184.72180239437128,135.4125347628774,419012.11306415003,205408.62839560187,343357.50473581423,0,2010,1454,4
-215.66313602935702,187.46592822413615,153.95966385465528,422011.89190439135,207469.0521771126,359292.1312725648,0,2010,1451,4
-217.81078851927023,190.75395795952315,171.60957968898654,424591.87350707577,209609.09181261293,374976.3982224225,10,2010,1451,4
-225.31938963265938,194.2670699667385,188.3922062886455,426802.5039875763,211817.0723464709,390372.8769490953,0,2009,1452,4
-238.13771959620752,197.7136743688317,204.37395077085176,428699.3628106782,214078.54778219335,405444.2174261206,0,2010,1451,4
-256.1671728173489,200.83280169913257,219.63973676666802,430340.723144636,216375.60335721157,420153.9673457446,0,2009,1452,4
-279.2615128358009,203.3952668282008,234.28179399692013,431785.5148246513,218687.01332270415,434467.0545355364,0,2008,1451,4
-307.2293047927556,205.20327975839572,248.39565557317084,433091.38059591694,220989.35576337154,448350.55190778285,0,2010,1454,4
-339.837985490193,206.0887800042759,262.08084025647594,434312.9240826563,223258.4324339823,461774.27177923615,0,2010,1451,4
-376.8196383841671,205.90978741004128,275.44441861597,435500.28213514667,225470.45166992032,474710.53307180875,0,2008,1451,4
-417.87971418520993,204.54499321643692,288.60485762380006,436697.6761437025,227602.99276209614,487133.66640688985,0,2009,1455,4
-462.70500505200994,201.8889249980787,301.69142136908914,437941.94012944074,229635.52718207162,499019.4256652825,0,2008,1453,4
-510.96800277947733,197.84927829689028,314.8348320046985,439261.2280723326,231549.2233481145,510344.34249896917,0,2007,1452,4
-562.3298495841664,192.3456747486246,328.15061007617527,440673.87565629673,233326.33455543625,521085.55899684445,0,2009,1452,4
-616.4415898633421,185.30894287752338,341.7234886802628,442187.56657942553,234949.6780709305,531220.8785861405,0,2008,1451,4
-672.9440363492146,176.67968043908277,355.5997996546594,443798.97949081066,236402.62391029668,540728.686071045,0,2008,1452,4
-731.4700337232573,166.404720993518,369.7863820148639,445493.74921420426,237669.74599421414,549588.077273545,0,2008,1452,4
-791.648326205553,154.43234782991752,384.2509825623896,447246.51269773045,238737.7821344495,557778.9934335583,0,2009,1454,4
-853.1079292592736,140.70677586235578,398.92224614822595,449021.2253120668,239596.56867589432,565282.1144206065,0,2010,1452,4
-915.4850122474566,125.16104298671011,413.69041365391024,450772.0897894189,240239.93075389895,572078.8960163696,0,2008,1453,4
-978.4287160137216,107.71061285097457,428.4098406649596,452444.9556732309,240666.29623714642,578151.641502615,0,2008,1453,4
-1041.6021672917068,88.25098397607336,442.9060777157548,453979.23898010177,240878.71484194027,583483.2792843009,0,2008,1453,4
-1104.6806927710259,66.659189716937,456.9898050119884,455310.6647097454,240884.34528507036,588056.9879042399,0,2008,1451,4
-1167.3475863036729,42.79799303541185,470.4727978851873,456374.1690108575,240693.67644649866,591855.6899915694,0,2010,1453,4
-1229.2883694284762,16.52209244369905,483.181530597769,457106.5051649616,240319.45999337902,594861.3923478813,0,2009,1451,4
-1290.1871613225132,-12.314716528392932,494.97021110615043,457449.0473046489,239775.2232786607,597054.604770322,0,2008,1452,4
-1349.7242352626513,-43.85238465236683,505.7310334745295,457350.42772295326,239073.70739828443,598413.9602740933,0,2008,1452,4
-1407.5727277009453,-78.21757381708458,515.3945559822166,456768.34158980177,238225.43662698596,598916.0481857592,0,2009,1462,3
-1463.396054790664,-115.51671411821431,523.9178182470039,455670.8002299242,237237.2222050695,598535.5134454581,0,2008,1455,3
-1516.8463342386935,-155.82948829324405,531.2672017251581,454037.1122478024,236110.96786048368,597245.3870668607,0,2010,1454,3
-1567.5645273433208,-199.20143621402858,537.4066875947659,451858.6456471628,234843.41272021833,595017.640258438,0,1988,1470,3
-1615.1837278435517,-245.63228954064354,542.294693290679,449139.48235434596,233426.78499151132,591824.0091431505,0,1984,1473,3
-1659.3325414856386,-295.05950592342305,545.8850779088076,445896.85397506517,231849.85375569804,587636.9917443991,0,1971,1485,3
-1699.6387951841007,-347.34055223048705,548.1278940553914,442161.0291631428,230099.03272966307,582430.9962768911,0,1974,1483,3
-1735.7387421372714,-402.2367098954533,548.9689052777162,437974.4980598952,228159.52140083458,576183.7446933767,0,1974,1482,3
-1767.2894586762147,-459.3992780551909,548.3500485825595,433390.7765769851,226016.46878619195,568877.810522082,0,1948,1502,3
-1793.9808546777813,-518.3593248536773,546.214762725859,428472.7479858253,223656.25752307306,560502.0769860987,0,1952,1499,3
-1815.5500337982182,-578.522441601051,542.5195596529484,423290.13787621266,221068.05985492983,551053.1295171536,0,1940,1506,3
-1831.7971179059316,-639.1695111360126,537.2465351745342,417916.88287503994,218245.29575828352,540536.7008707095,0,1949,1504,3
-1842.6016264389818,-699.4677543316948,530.4107891440964,412428.97564277373,215186.39656976992,528969.0236973611,0,1935,1510,3
-1847.9416472773482,-758.4934124598989,522.062999149944,406902.2527710052,211894.77586556823,516377.88422350964,0,1934,1517,3
-1847.910374218816,-815.253764323687,512.2883089142032,401410.36632388696,208378.3649470535,502803.6000195256,0,1931,1516,3
-1842.7230257672222,-868.7006412382121,501.1981604297426,396023.2650844308,204648.8350001497,488299.8391695462,0,1925,1523,3
-1832.7154498809905,-917.7426928145409,488.91503908479666,390805.71023641236,200720.45839409804,472933.78690693696,0,1910,1536,3
-1818.3398307840403,-961.2605358642633,475.5585435893694,385815.8659076814,196609.1973795754,456785.97431860643,0,1915,1536,3
-1800.154534686249,-998.1310562771525,461.2399182088027,381103.5912288506,192332.8444999488,439949.7395107261,0,1907,1535,3
-1778.7939820545155,-1027.2697492880275,446.0659593890571,376707.60308690614,187912.41087402895,422529.61690977786,0,1915,1533,3
-1754.920197194566,-1047.6828599540308,430.1495013388224,372652.4749640235,183374.3361926286,404639.7749079149,0,1931,1519,3
-1729.17483419966,-1058.5252933693844,413.62122210331495,368946.957145341,178752.65895276563,386403.9516117523,0,1926,1525,3
-1702.140806668482,-1059.1688521752342,396.6390363915196,365583.63429712877,174090.12707339998,367956.3947379216,0,1916,1533,3
-1674.3207241461414,-1049.2637589002836,379.3908692965882,362539.64053518575,169437.45193511958,349442.92650157993,0,1912,1535,3
-1646.1402995284766,-1028.7792799900521,362.0834003395504,359778.7085657794,164849.93327133296,331020.39251587127,0,1936,1513,3
-1617.96894843655,-998.0300283635249,344.91916190486677,357254.5048445968,160381.82280452317,312852.81466955354,0,1938,1513,3
-1590.1391062921164,-957.6852172372581,328.0751502093224,354914.16825793125,156081.35113199166,295105.89107310324,0,1950,1502,3
-1562.949402226832,-908.7443035811522,311.6872586122546,352701.3510418255,151988.87511189902,277940.93800923973,0,1928,1525,3
-1536.6495833961008,-852.4776220562915,295.84000168888554,350559.3110822434,148137.52787010898,261507.33309351024,0,1940,1514,3
-1511.4195374499134,-790.3615350875835,280.56783429111186,348433.9668757557,144554.80569433898,245935.93920764525,0,1949,1502,3
-1487.3534600520577,-724.0305790761048,265.86962706275153,346276.06979689695,141264.22103566368,231336.2906294058,0,1974,1484,3
-1464.448769152419,-655.2394546897439,251.7272529955949,344042.3780309919,138286.59854710696,217796.23449208,0,1965,1491,3
-1442.5994257259288,-585.8315030272653,238.11678351601233,341696.2180983791,135640.82316732593,205382.6805127117,275,1981,1474,3
-1421.5982808935319,-517.703843686353,225.00577713053073,339208.0729012921,133344.06591060155,194143.18447339395,1164,2008,1453,3
-1401.1506808052645,-452.7443248813225,212.33915609935988,336556.91724506207,131411.78504543647,184107.5302406195,2446,2011,1455,3
-1380.9015409552353,-392.7327103666258,200.01892745330267,333732.40962740197,129857.55944105431,175288.82767343006,2827,2007,1454,3
-1360.4854685721236,-339.17643116991354,187.87082765933224,330738.59022466064,128691.42807496554,167683.4431240097,2886,2009,1453,3
-1339.5950772188094,-293.0710602366438,175.61854545347413,327601.93574250577,127915.51426389202,161268.46136815593,3026,2008,1454,3
-1318.033694473477,-254.71204481190634,162.94011726165851,324385.1418506474,127519.25417460933,155997.4929645753,3017,2014,1453,3
-1295.740942803001,-223.70297077092948,149.61899861970642,321199.4334420454,127478.6690072732,151798.8423097162,3053,2011,1452,3
-1272.8164280696187,-199.17921110036718,135.68615232475798,318200.431545019,127761.17879014026,148580.46757005982,2976,2009,1453,3
-1249.5400868419326,-180.13623889895842,121.45055680995603,315560.738110812,128332.09445686106,146241.68989924557,2870,2011,1453,3
-1226.3548035848537,-165.66839691817205,107.40852608955566,313433.7839791236,129156.94575641079,144685.51357074396,2697,2008,1453,3
-1203.786071349213,-155.01972855403017,94.09386209617087,311929.29150150955,130198.4981441417,143826.13149882725,2611,2008,1452,3
-1182.3130011364588,-147.52591051904938,81.93620816949361,311106.14035823266,131413.00362196603,143591.52272917627,2629,2014,1453,0
-1162.2587631325605,-142.56115437714658,71.18354411038678,310977.8151364415,132750.151019569,143922.74415639433,2677,2018,1453,0
-1143.7592332408524,-139.53511281856134,61.91333169387905,311523.9296246567,134157.36487572466,144770.87048009952,2678,2034,1452,0
-1126.7997652872064,-137.91893363310697,54.09121061589551,312701.7111158208,135586.0965742294,146092.89093015235,2719,2043,1451,0
-1111.2756499072084,-137.26360909226636,47.61657715263941,314453.1595825107,136996.6212969662,147848.56904276667,2704,2038,1450,0
-1097.0436585010953,-137.20470773196385,42.34095109735405,316707.999748681,138359.69668165498,149999.33210436587,2677,2047,1451,0
-1083.9597090584077,-137.4670385252479,38.08418496175043,319386.25765242876,139656.27459878186,152508.48280251087,2647,2062,1451,0
-1071.9099364589863,-137.8679996550246,34.66165175773982,322402.3432266655,140876.60818880738,155341.67346548397,2585,2068,1450,0
-1060.829157075307,-138.3095496124372,31.90852415715892,325669.21754487633,142018.99355167395,158466.94600180682,2453,2080,1451,0
-1050.6973119836614,-138.75884059374485,29.687446521541094,329102.31445323303,143087.56519691576,161854.040597418,2329,2080,1452,0
-1041.5212528003021,-139.2253421141388,27.88311500541519,332624.25277581025,144088.76352519295,165473.21341860056,2142,2085,1452,0
-1033.3166694474983,-139.74253691610946,26.394090632044758,336169.09771253064,145027.79563718414,169294.07407092676,2007,2098,1454,0
-1026.0931055415624,-140.35346618570827,25.12541857264394,339684.1617294718,145906.8211848867,173284.93499064996,1849,2099,1457,0
-1019.840453161037,-141.09466978818887,23.981219355097533,343129.6627251919,146724.98696741098,177412.84615457372,1672,2123,1455,0
-1014.5224955483261,-141.9818608692915,22.86023174633381,346477.4353376301,147479.3862496146,181643.9636591298,1452,2102,1459,0
-1010.0801513031719,-143.00315204101653,21.65945569039591,349709.0606371718,148166.2803152549,185943.95277661315,1330,2134,1457,0
-1006.439915930189,-144.11925485418314,20.285099971690986,352813.3887779946,148782.33889527773,190278.63816425408,1088,2142,1457,0
-1003.5223449618666,-145.26831229073176,18.663934216608485,355783.92734992865,149325.5485597812,194614.88948745411,1007,2200,1631,0
-1001.248130214647,-146.37527846204978,16.750017064425712,358616.8667889271,149795.49449792015,198921.23777589927,860,2179,1463,0
-999.5422407151838,-147.36471983090925,14.525811419042226,361309.9586062433,150193.12987959688,203168.11315309137,732,2191,1464,0
-998.3363188769227,-148.17192529321656,11.998513132984998,363861.98100370687,150520.2901376579,207328.0246153254,537,2224,1632,0
-997.5687185348971,-148.7490601787083,9.193337633014336,366272.51055600296,150779.21469228153,211375.69166877703,457,2207,1629,0
-997.1830964313533,-149.06764917383833,6.144928367264397,368541.7991944036,150972.24635765978,215288.13740742873,385,2237,1630,0
-997.1269627953307,-149.11860301145728,2.88942619563983,370670.67999321973,151101.69367237686,219044.96746786483,312,2262,1635,0
-997.3501496905162,-148.91031713170085,-0.5392725787572115,372660.5762694361,151169.83665631904,222628.67672112587,239,2266,1634,0
-997.8031014395627,-148.46587529307382,-4.108943003887784,374513.6759067882,151179.06354408173,226024.74091951686,163,2299,1633,0
-998.4359351706157,-147.82037407600157,-7.786734185457536,376233.1168534298,151132.01852285318,229221.56779043665,143,2299,1634,0
-999.1986570481063,-147.01809587324465,-11.53744429698502,377823.0541967648,151031.64843050018,232210.38444462226,46,2336,1639,0
-1000.0419558046395,-146.10838522481436,-15.322857060370843,379288.69763077033,150881.17828538257,234985.07621821182,60,2332,1638,0
-1000.9181691887214,-145.1410226967732,-19.101290515716226,380636.32242461335,150684.11155572513,237541.9507582937,27,2380,1636,0
-1001.7825141114937,-144.16289352650116,-22.8273797019547,381873.1476175898,150444.28098474265,239879.43131088457,20,2367,1640,0
-1002.594269272714,-143.2162486381056,-26.453159802985052,383007.0777531019,150165.8859468687,241997.78218080808,0,2408,1639,0
-1003.317263750036,-142.33794573927773,-29.930553072068275,384046.3579067035,149853.4580782501,243898.88659749128,11,2401,1642,0
-1003.919881032424,-141.558603927588,-33.21447968654838,384999.1537260167,149511.75523619415,245586.06873400146,0,2406,1639,0
-1004.3749343169592,-140.90102140755195,-36.265933128766314,385873.0672116824,149145.6299384564,247063.98647057777,6,2408,1640,0
-1004.6594867915016,-140.3790146316489,-39.0536371320319,386674.6928915054,148759.96077198713,248338.53026397116,0,2406,1640,0
-1004.7553188897074,-139.9984814029231,-41.55285991939375,387409.3404556838,148359.68487040058,249416.6924356198,0,2458,1639,0
-1004.6503285164131,-139.76072502800017,-43.74200838111259,388080.91004680353,147949.85848129936,250306.46654352435,0,2470,1646,0
-1004.3397836180388,-139.6659494695386,-45.59936403241531,388691.83756485407,147535.66135685993,251016.76788069852,0,2471,1643,0
-1003.8263050159799,-139.71506399845896,-47.10161237435396,389243.13610652403,147122.28741619087,251557.310823879,0,2479,1647,0
-1003.1186206805693,-139.90969000992584,-48.223728683710654,389734.59626795293,146714.71758290747,251938.4291542841,0,2464,1640,0
-1002.2301218461037,-140.25085175335747,-48.93889988723642,390165.0445600175,146317.50609754858,252170.86659384353,0,2462,1639,0
-1001.1784642786276,-140.73702013850925,-49.21839417716242,390532.4989968297,145934.70267909672,252265.56516616975,0,2486,1649,1
-999.9869214020723,-141.36334367914495,-49.03292367424284,390834.18486183276,145569.8669028394,252233.4823712977,0,2496,1649,1
-998.6863474284901,-142.12353959626188,-48.35633616440237,391066.5066736411,145226.05235476998,252085.47064787292,0,2511,1646,1
-997.315295406016,-143.01365606194787,-47.170784994536845,391225.2430633562,144905.68929042722,251832.1558492568,0,2534,1649,1
-995.9180158153512,-144.0356716445592,-45.47182923916321,391306.15039319417,144610.47666017615,251483.69506819727,0,2572,1648,1
-994.5420948056113,-145.19917866909182,-43.27054896503465,391305.7824681491,144341.46855444758,251049.46314154853,0,2551,1647,1
-993.2365796365946,-146.52109633912409,-40.59010594097961,391222.3059889346,144099.34067917627,250537.81822882066,0,2551,1648,1
-992.0510365063706,-148.02291626324487,-37.458447985555026,391056.2001572231,143884.64262394205,249955.98615651453,0,2575,1651,1
-991.035771332152,-149.72217037343538,-33.90139657291027,390810.481366663,143697.80986575678,249310.01180200314,0,2609,1659,1
-990.2418908803324,-151.6193357975253,-29.93901751280083,390490.1696027262,143538.87586918793,248604.6995993897,0,2617,1667,1
-989.7204303829106,-153.68971953660142,-25.58639410266566,390101.2850763403,143407.13748287613,247843.5637137345,0,2573,1687,1
-989.5219290745354,-155.88794113494322,-20.857713992924687,389649.81577324256,143301.0836057935,247028.93049311207,0,2595,1700,1
-989.6970719709586,-158.16177840503002,-15.770506674717652,389140.8997827593,143218.61469885544,246162.20762947842,0,2600,1688,1
-990.2973293915367,-160.4646611517963,-10.347604981056334,388578.48685680045,143157.31637828244,245244.1264283912,0,2577,1704,1
-991.3757171744768,-162.75995501675115,-4.6173621318303955,387965.61919759325,143114.55487858254,244274.74017193876,0,2545,1711,1
-992.9891524780218,-165.0188656424318,1.3857653848964389,387305.1099204433,143087.3770734805,243253.17305006835,0,2571,1719,1
-995.2018848388399,-167.21665681253185,7.619445213218487,386600.23304448306,143072.37447094225,242177.3546511272,0,2552,1735,1
-998.0872321278181,-169.32963903142962,14.031692471365506,385855.24134281505,143065.66154051307,241043.86087474023,0,2505,1764,1
-1001.7263624286405,-171.33305465052936,20.560637842100096,385075.7984471618,143062.98712479975,239847.77598135557,0,2527,1776,1
-1006.2055654897489,-173.19957031974818,27.135838184053842,384269.35636613646,143059.8977443332,238582.58261792772,0,2491,1770,1
-1011.6135228174643,-174.89832867911667,33.68079470398389,383445.37715981767,143051.9166995738,237240.1179005707,0,2462,1791,1
-1018.0385314447728,-176.39424394962955,40.117282553873665,382615.3732408151,143034.76286416553,235810.54775625918,0,2436,1815,1
-1025.565555578636,-177.64738745978593,46.3706509826008,381792.8244470395,143004.56813546302,234282.39665765144,0,2439,1823,1
-1034.2736765733605,-178.61265811229194,52.374343095659015,380992.9952132184,142958.03399202006,232642.6953117094,0,2444,1849,1
-1044.2341642768474,-179.24000073913155,58.07316878315311,380232.65625612024,142892.52471667877,230877.20961301544,4,2408,1875,1
-1055.509193179343,-179.4759852251391,63.4247422896896,379529.6831686437,142806.0542050718,228970.7247654542,0,2400,1868,1
-1068.1510543625031,-179.26738615965064,68.39842672469432,378902.51268349437,142697.109319609,226907.39764467324,4,2365,1907,1
-1082.201019997796,-178.56548888876813,72.97237036259477,378369.64821122406,142564.38493488147,224671.1665925888,0,2244,1947,1
-1097.6878091530543,-177.329513034566,77.12957872941462,377949.4091574842,142406.5729332246,222246.19041277972,0,2296,1979,1
-1114.6270385188454,-175.52916354917082,80.85392453168099,377659.86246365064,142222.28253714272,219617.29278374498,0,2234,2012,1
-1133.0218259978888,-173.14629099081446,84.1274516207922,377518.8312723336,142010.10683279549,216770.4055556938,3,2240,2015,1
-1152.8633790455333,-170.17486409023985,86.92986030326857,377543.93699270184,141768.80155717433,213692.9895147358,6,2216,2067,1
-1174.1312055711103,-166.61927188535637,89.23953530382326,377752.63485104835,141497.49630769476,210374.40934350807,0,2151,2124,1
-1196.7924673151483,-162.49220192444199,91.03491575489215,378162.21950902895,141195.8440236694,206806.30807615953,0,2155,2144,1
-1220.799931278394,-157.81280335628216,92.2961313715548,378789.7647063399,140864.0707025011,202982.97465079022,3,2052,2028,1
-1246.0889548521654,-152.6047575396185,93.00731087638498,379651.95502222626,140502.98445796844,198901.6400290983,0,2047,2029,1
-1272.5742513961868,-146.89441292542134,93.15891070143736,380764.81779047265,140114.0174616664,194562.77052045116,0,2048,2033,1
-1300.1481104920624,-140.70892578970577,92.74962533394383,382143.357232097,139699.28955881088,189970.3354040081,0,1918,2096,1
-1328.6810819975378,-134.07351780498516,91.78838986587229,383801.05956615065,139261.630190254,185131.8983264943,0,1949,2125,1
-1358.023098630137,-127.00858123328587,90.29603302889319,385749.2837697435,138804.53030515244,180058.66518154088,0,1824,2139,1
-1388.0033511029674,-119.52828668374809,88.30545408370665,387996.5513090056,138331.98059616843,174765.56718302655,0,1795,2141,1
-1418.4293362042895,-111.64078292761322,85.86021198425105,390547.72660691984,137848.15314313176,169271.19304835462,0,1778,2157,1
-1449.0856366177409,-103.34955731764066,83.01098442563296,393403.09893400804,137357.0212035952,163597.69480293177,1,1753,2211,1
-1479.7327549827583,-94.65583443436077,79.80900425752121,396557.39828686457,136862.018001297,157770.88998975378,0,1689,2218,1
-1510.1052987686292,-85.56159694642963,76.29833734443959,399998.88984154584,136365.74355112237,151820.4838254081,9,1594,2242,1
-1539.9089784116306,-76.07326826139919,72.5090399955314,403708.7555380147,135869.77875188505,145780.21015897382,13,1575,2248,1
-1568.8175200991625,-66.20644438190223,68.45083918585888,407660.7993660133,135374.6849009545,139687.7663240361,12,1520,2274,1
-1596.4697573785247,-55.99113758929383,64.10889613182526,411821.3358845397,134880.2386822631,133584.74058978306,11,1506,2280,1
-1622.4664764559075,-45.476550773600145,59.445707967828234,416149.3439462459,134386.06416171565,127516.55319487657,12,1443,2306,1
-1646.3675480556412,-34.73443835310051,54.41012777783787,420597.0368738883,133892.74586968616,121532.10146199747,16,1398,2290,1
-1667.6905294230885,-23.859838020001575,48.95017659066762,425110.47525657405,133403.0932943965,115683.31364752367,21,1459,2269,1
-1685.9152888941283,-12.967471053980395,43.028853679410126,429629.9139564513,132923.2554968641,110024.79839026488,0,1481,2229,1
-1700.4988390259396,-2.1834565476622587,36.64409253307844,434090.0452362522,132463.70692091514,104613.325451523,0,1568,2165,1
-1710.894972510105,8.364698755357054,29.847071552058836,438420.0392352768,132039.9110942142,99507.35966129744,5,1730,2135,1
-1716.5728844615032,18.557170088459692,22.750082438670038,442543.3395780455,131672.23071952726,94766.93298642842,10,1949,2009,1
-1717.036703381769,28.28800215105626,15.521534748967936,446377.66601893597,131385.0215876461,90453.62528217702,4,2151,2068,1
-1711.84548013292,37.464155499910106,8.37182155522668,449835.59236794163,131205.4282222168,86630.68658848036,0,2210,2008,1
-1700.635024183811,45.99605573989656,1.5308015154265315,452826.62201939744,131162.3721040765,83363.48408007159,13,2265,1903,1
-1683.147141293299,53.7862396600418,-4.785206961304829,455261.7408555257,131285.79776244215,80720.07239684208,3,2260,1841,1
-1659.2593057445374,60.72657426321372,-10.405840238854665,457059.5869774614,131606.20577403417,78771.47642288449,13,2242,1809,1
-1628.997562921232,66.71299924785527,-15.220067556116945,458154.0535067793,132154.4365459365,77590.82241040001,0,2165,1790,1
-1592.5239852901716,71.67735935373453,-19.16746189286639,458504.0347514457,132961.4413746028,77250.63394967138,12,2124,1602,1
-1550.1062414257124,75.61971832297749,-22.219236150472423,458102.53432997805,134057.6305699885,77819.19533046208,0,2044,1592,1
-1502.0821118942965,78.62192794569243,-24.358524501228157,456981.72259349143,135470.77416190092,79357.11672443931,4,1951,1582,2
-1448.8295949838118,80.8385817697637,-25.560599940792223,455214.02563094685,137221.7378421346,81914.19187381121,11,1920,1571,2
-1390.7563756809657,82.47391822333452,-25.775697864167235,452909.856664456,139319.46811494578,85526.8341519867,10,1927,1539,2
-1328.3144015693922,83.75121571478336,-24.922485230759925,450209.9766043387,141757.2372836493,90216.18487944952,5,1956,1505,2
-1262.027468279986,84.87816012205516,-22.8960154688435,447270.1734297621,144511.40344615316,95986.44980216247,10,2024,1455,2
-1192.5127715865522,86.02048372128834,-19.58580801477264,444241.9452370534,147543.6722239961,102823.71565689474,2,2012,1457,2
-1120.4791757929506,87.29598963535165,-14.896897392998211,441257.4924734252,150805.9595509336,110695.86879022534,0,2011,1453,2
-1046.69913455825,88.78387989952947,-8.767487465830827,438422.3400975766,154246.2436107112,119554.43507561786,0,2010,1455,2
-971.9748523852071,90.53638853849763,-1.1769238464775462,435812.8018493993,157814.8329377568,129338.6106446775,0,2011,1451,2
-897.1166514539004,92.59001057989231,7.857301717970252,433476.06417451566,161469.11292684948,139979.54837133116,0,2011,1454,2
-822.9298801798884,94.98170972856512,18.2874323769931,431433.0140426923,165174.75887037386,151403.48312906316,0,2009,1453,2
-750.2039260344828,97.76965336490954,30.041829741748924,429683.56597083004,168904.16108161,163534.45316620992,0,2011,1452,2
-679.6961195365543,101.05191829897072,43.029722269374254,428212.4404923071,172633.99581499296,176296.46183003703,0,2010,1453,2
-612.1047527411652,104.97485264048869,57.147077716150356,426993.8001460156,176343.24463171928,189614.8627652641,3,2011,1452,2
-548.045645142856,109.72329381223683,72.28096777196271,425994.97024104366,180012.1179576961,203418.01977588757,0,2011,1455,2
-488.0480141408951,115.4887434532704,88.30769417133607,425179.1972952827,183621.82751591818,217638.87180583674,0,2010,1455,2
-432.56400299980345,122.42064394571486,105.08649458002073,424507.2011324906,187155.00176817927,232215.340986074,0,2010,1452,2
-381.9808412106233,130.58106958541123,122.45481281236364,423938.1676853366,190596.42923100104,247089.82975083194,2,2010,1452,2
-336.6316032118816,139.92215000635923,140.22804232428004,423430.9527279361,193933.89499832765,262208.3610901862,0,2010,1454,2
-296.80291505042135,150.28693789934422,158.201501973505,422945.82587277726,197158.96323242295,277519.53812279593,0,2008,1454,2
-262.73874695723856,161.42453405379462,176.1517515411341,422446.57998419733,200267.30407082418,292973.1823805376,0,2007,1457,2
-234.6396008304074,173.01486968647217,193.84212356095375,421903.1319142089,203258.30177159436,308519.01972439716,0,2009,1453,2
-212.6579240213918,184.70268842443593,211.04014953259545,421294.86594236194,206134.26154401083,324106.24150453194,0,2010,1452,2
-196.8945264264866,196.13092636008486,227.5424579601614,420613.61481240817,208899.57182768628,339683.5692089009,0,2008,1453,2
-187.39883351302905,206.96310715283582,243.1970704829248,419864.7814288633,211559.70497180586,355199.3349037567,0,2008,1455,2
-184.1705707059099,216.89828020604128,257.918665886254,419066.51334809477,214119.79382512122,370601.98271294753,0,2009,1452,2
-187.1607531607139,225.68189246273568,271.6925455617021,418247.82980524603,216582.98959686817,385840.5602713503,0,2007,1456,2
-196.27224862394885,233.1105552998542,284.56367689917334,417446.0499597124,218949.09317587953,400864.91641974804,0,2009,1453,2
-211.36037898354752,239.03196539960356,296.6152099944779,416703.4074722177,221213.72973768378,415626.31136113714,0,2009,1453,2
-232.23352770123302,243.3422320900292,307.9476388055548,416063.68973107147,223368.20644119885,430078.0425505784,0,2014,1455,2
-258.65529682569183,245.97982743377125,318.6668645809638,415569.572665032,225400.3526524205,444175.6384682046,0,2014,1453,2
-290.3503160563451,246.91515113768472,328.8812484124846,415260.204669863,227296.35335633048,457877.23587663786,0,2014,1453,2
-327.0116386651371,246.1385760925489,338.70385530178277,415169.1228714335,229042.682980103,471143.82485522074,0,2016,1451,2
-368.30752000040644,243.65020852268262,348.2555287781419,415322.8159445693,230627.32404911975,483938.90058778314,0,2013,1453,2
-413.88844683722914,239.451526552842,357.66534434974494,415739.58347325027,232040.34045966633,496228.0691526219,0,2016,1455,2
-463.3922923497508,233.5399021188355,367.06624709952365,416428.62115748663,233273.92407012536,507978.6158723195,0,2013,1452,2
-516.4461448568878,225.90737200495576,376.58355700264934,417389.57095916616,234321.8618724782,519158.9695777451,0,2008,1453,2
-572.667511639392,216.54265464908966,386.3176266836311,418612.4834066842,235178.67193538137,529738.5850242889,0,2008,1452,2
-631.66480354036,205.43443287260678,396.32876615560485,420078.0073128813,235838.90930654694,539688.0194770964,0,2010,1454,2
-693.0375570732173,192.57366890706487,406.6314564242003,421757.76594991976,236297.10022177175,548978.9091853515,0,2009,1452,2
-756.379476664726,177.95352144398748,417.1964741443992,423614.9160746655,236548.37768420318,557584.204664971,0,2008,1453,2
-821.2824145404983,161.56710762535556,427.95503355274076,425604.69759597414,236589.42168539678,565478.4166671323,0,2009,1452,2
-887.3404109629786,143.40244231077318,438.80240788819145,427675.071398841,236419.3868856008,572637.5519882689,0,2008,1454,2
-954.1567199387649,123.43419517827522,449.6034008269248,429767.8549934944,236040.80926163314,579039.0605973202,0,2010,1452,2
-1021.3498769965057,101.61641919734747,460.2009481912566,431820.1908766943,235460.28070068546,584661.6814028459,0,2009,1452,2
-1088.5537526128928,77.88058080318115,470.42790474506177,433766.14251285227,234688.46472389618,589484.8719900381,0,2008,1454,2
-1155.4132125389874,52.13880811321877,480.12166022207873,435538.6097353618,233739.36055715277,593488.0368435624,0,2007,1453,2
-1221.5771373387176,24.290631158148628,489.13629064570654,437071.22653625114,232629.18847167928,596649.8068482014,0,2007,1453,2
-1286.6918365677675,-5.768642006080028,497.34816854329085,438300.10548834037,231375.08400424552,598947.5156188345,0,2008,1454,2
-1350.399123758029,-38.14002127563038,504.6578740610131,439165.9088031733,229993.52014261234,600357.0047543322,0,2007,1453,2
-1412.3367586069173,-72.91467956333672,510.99105718244226,439615.94481705653,228498.8465999494,600852.6602368703,0,2009,1453,3
-1472.1380799131125,-110.1692448384742,516.297174488589,439605.8506870458,226902.23122395284,600407.5907128536,0,2008,1453,3
-1529.4323259517769,-149.9608466940811,520.5446572956969,439101.1584914814,225210.70048878933,598994.0372625281,0,2008,1454,3
-1583.8447435141559,-192.3200407126101,523.7131918836885,438078.71754900494,223426.3187097795,596583.9829165776,0,2005,1453,3
-1634.9954672509814,-237.24058170958213,525.7845116917777,436527.7484644876,221545.8271594239,593149.9019478008,0,2010,1452,3
-1682.499712989513,-284.6662546036904,526.732938457742,434450.6063475912,219560.87012913002,588665.735424068,0,2007,1453,3
-1725.9693663699527,-334.47645247165525,526.5190642343238,431863.1389876943,217458.89623086195,583108.0840477558,0,2009,1452,3
-1765.0174948884464,-386.47224234591135,525.0896729449966,428794.495608327,215224.5517923707,576457.514106404,0,2012,1454,3
-1799.271702895567,-440.3633343153353,522.3823569922395,425286.18208322866,212841.34421820482,568699.9985426661,0,2011,1452,3
-1828.394617090929,-495.7555561520563,518.3306763467162,421390.21943825844,210293.54865354628,559828.5606616221,0,1994,1464,3
-1852.1017939098176,-552.139151345626,512.8689224282607,417167.12155136577,207568.0203830449,549845.0309712066,0,1982,1476,3
-1870.1756465366166,-608.8816677589499,505.9409718855378,412684.1194273027,204655.64533880664,538761.6279156287,0,1969,1483,3
-1882.4811941678288,-665.228893702103,497.5154389315314,408013.12845369504,201552.59142391878,526602.1829644827,0,1979,1475,3
-1888.9822459947188,-720.3113528668715,487.6007642395122,403228.6243952297,198261.24250537803,513403.2432617899,0,1974,1481,3
-1889.7550483112466,-773.1575765803591,476.25202565341374,398405.5432085279,194790.2223345545,499215.03136399563,0,1973,1482,3
-1885.0009941362184,-822.7189300685952,463.5668308608695,393616.6627456081,191153.30428669698,484101.89682656626,0,1943,1507,3
-1875.0550575857983,-867.9004549709526,449.6728912108168,388929.98052813683,187368.03102990452,468142.4857095895,0,1938,1513,3
-1860.3846477137442,-907.5923936540382,434.71083153023716,384406.64584005496,183454.96484974603,451429.4057323515,0,1938,1509,3
-1841.5751286611198,-940.7045007204027,418.8189710537096,380099.11645531363,179437.67625490858,434067.70771196636,0,1941,1507,3
-1819.2906487594437,-966.2084897254433,402.1315735104653,376049.8890279567,175343.420327772,416173.2813248606,0,1954,1497,3
-1794.2117772718336,-983.1940116146492,384.79159453185474,372290.98134175636,171204.4642785278,397872.2718727489,0,1953,1503,3
-1766.9812333785442,-990.9258619403544,366.96645004293276,368843.26969497715,167059.43770938992,379300.94956367754,0,1953,1497,3
-1738.1781572368732,-988.8894727040004,348.8576699084669,365715.40612235613,162953.68763807107,360605.83701331506,0,1954,1497,3
-1708.3118588176283,-976.8326998247035,330.6978802840281,362902.88857672934,158937.5445994665,341943.12650525925,0,1955,1497,3
-1677.8256436808538,-954.8043466627867,312.7356207107157,360387.75768920284,155062.3675357009,323475.6812878134,0,1965,1494,3
-1647.107353053902,-923.1773445127034,295.2165022889109,358139.3217622575,151376.3667241801,305368.6497799606,0,1967,1489,3
-1616.5005647425944,-882.6524805901175,278.36247639631495,356116.01897644385,147922.0510735183,287784.39369371894,0,1958,1492,3
-1586.3097438466773,-834.2441729438264,262.3514661909252,354268.0736139987,144735.0468067405,270875.6088822767,0,1970,1483,3
-1556.7927628663244,-779.2441007192062,247.30691429206493,352540.9724414518,141843.73902804765,254778.7585682403,0,1965,1490,3
-1528.139468370981,-719.1629583276782,233.2997264760029,350879.7621696024,139269.71521985548,239610.5272917711,0,1981,1476,3
-1500.4479820246581,-655.6724601759108,220.3560383067826,349232.86751150904,137028.7175170918,225466.58921957057,56,1981,1476,3
-1473.7112685931954,-590.557720736433,208.46276964047436,347554.326272485,135131.5868850627,212421.69795155304,343,1985,1472,3
-1447.8145939489252,-525.6628959787574,197.56655636094206,345804.9885518206,133584.88041481172,200530.65256749015,1117,1991,1467,3
-1422.5436338790312,-462.82742037219987,187.5663032361621,343953.6168222764,132391.14343014828,189829.5476854652,2031,2013,1451,3
-1397.612815996085,-403.79721643334574,178.29528697151338,341978.7818686441,131548.62738793314,180337.06372399715,2549,2009,1457,3
-1372.7198950084148,-350.0626725939145,169.49655472352228,339873.0344484944,131049.83410438885,172055.01448928897,2592,2011,1451,3
-1347.6081948253814,-302.6417215540609,160.82225997702616,337650.191602051,130879.23734632971,164967.32126306446,2623,2011,1451,3
-1322.1174316149195,-261.93289514101195,151.8909546850509,335353.5467512871,131012.56506534354,159038.72626731373,2522,2009,1451,3
-1296.2351356697147,-227.76020613753198,142.40878310444694,333059.00615129154,131419.99403857236,154216.0461269744,2560,2010,1455,3
-1270.1507759515644,-199.59209556377044,132.30168556789917,330867.3418003556,132071.9062201757,150432.7219733142,2473,2008,1455,3
-1244.2703068343455,-176.77585933932903,121.76358378638125,328887.27108004666,132942.336341473,147614.44279189553,2422,2011,1452,3
-1219.144091803867,-158.66500126670184,111.1772903647184,327216.6509620773,134006.86242262748,145683.9797760685,2321,2011,1451,3
-1195.3230116485595,-144.65188795966012,100.96275675839489,325927.70262570085,135236.93729376805,144565.22459471485,2337,2010,1455,3
-1173.2280929398532,-134.1606888035629,91.45377576315532,325060.88586208754,136595.69782163046,144185.98430654357,2340,2010,1452,0
-1153.0943448711216,-126.63062588272449,82.8552056443972,324628.7128918602,138038.53522151755,144478.5274531958,2286,2009,1451,0
-1134.9771535886528,-121.50817376056175,75.25621701679384,324624.8952536169,139517.87318415073,145378.32075483102,2382,2018,1452,0
-1118.7915299390982,-118.25906674624169,68.65903373054286,325032.2394823135,140988.92655479495,146822.65199796314,2468,2016,1452,0
-1104.3607934218178,-116.39262689272137,63.00143125155665,325826.116899651,142413.4617000472,148750.34792321487,2495,2038,1456,0
-1091.462844115755,-115.4846016816008,58.17269512728058,326975.14839906135,143761.35150606383,151102.71118259654,2531,2052,1451,0
-1079.8741759562358,-115.19538769201012,54.03361380215751,328441.6255725204,145011.33565409735,153825.14795663705,2491,2056,1453,0
-1069.4040835754292,-115.282055753075,50.43960362696327,330182.3563802977,146151.4608892778,156868.45232564706,2463,2082,1451,0
-1059.9121990281676,-115.59668516339025,47.258251443440024,332150.11928712315,147178.58730572337,160188.935225809,2404,2069,1451,0
-1051.3119945258936,-116.06646731868591,44.37867990801275,334296.03414191224,148096.59731712122,163747.5191092648,2364,2089,1451,0
-1043.5633465807314,-116.66507744231879,41.71284323851591,336572.4229922523,148913.85333814743,167508.37213516128,2344,2072,1453,0
-1036.6570056278476,-117.39107664191306,39.18825488695878,338935.8212251536,149640.4124584211,171437.51231162564,2276,2101,1454,0
-1030.5949038868341,-118.25613681954329,36.73576798231718,341350.09690073517,150285.1596610162,175501.6712310684,2180,2109,1454,0
-1025.3729189193084,-119.27707907003507,34.279828601048656,343788.52311479964,150853.73556240706,179667.68135518255,2090,2120,1456,0
-1020.970632637518,-120.46694462441832,31.73631831305163,346233.7137715863,151348.26437978336,183902.3434771473,1929,2140,1454,0
-1017.3473514377341,-121.82331516990989,29.02021133574733,348675.7897569499,151768.75187890403,188172.63882370782,1857,2140,1455,0
-1014.444124510542,-123.31849965085708,26.061497170470037,351109.79038062313,152115.06450438357,192446.31980764822,1710,2160,1459,0
-1012.190095405548,-124.89719843288367,22.819518727340625,353533.30803283234,152388.27521684667,196692.55771277205,1542,2159,1458,0
-1010.5095306546142,-126.4831236238493,19.285484664160837,355944.80041357194,152590.85721389938,200882.37300097593,1333,2243,1627,0
-1009.3276924193941,-127.99287310271222,15.474529891944387,358342.4568228684,152726.06521675858,204989.03894223084,1191,2224,1630,0
-1008.574379279143,-129.35052668109006,11.41630991413071,360723.5130963896,152797.2228552009,208988.3750227542,1009,2273,1636,0
-1008.1849365901707,-130.49663507956498,7.148665087610227,363084.0217790388,152807.43773162397,212858.7901432694,889,2292,1632,0
-1008.0998892732516,-131.3911886217448,2.713184429683906,365418.9682829788,152759.71937214554,216581.28929062778,714,2319,1636,0
-1008.263960610644,-132.01274681802118,-1.8476331816785967,367722.5002667457,152657.17140898216,220139.46138632493,598,2373,1640,0
-1008.6247576449007,-132.35601335726497,-6.490906099884835,369988.19746697485,152503.06776355414,223519.42823107063,457,2346,1640,0
-1009.1313493585562,-132.42965526793967,-11.172370808982048,372209.4523264566,152300.84353738968,226709.92299865454,392,2387,1636,0
-1009.7331104687637,-132.25487633719302,-15.845137723642688,374379.77676205966,152054.07866850722,229702.39326075808,304,2391,1640,0
-1010.3792836536603,-131.8640335529796,-20.45926910750351,376492.8935580741,151766.46942898366,232490.98127407598,231,2427,1642,0
-1011.0195656236018,-131.2981274733048,-24.96261759496316,378542.77682323963,151441.7600377563,235072.47753062076,152,2475,1647,0
-1011.6055002611196,-130.60321341009333,-29.30230671622601,380523.6901627033,151083.6729229907,237446.20545578306,111,2503,1644,0
-1012.092060248288,-129.82636762415794,-33.42652975233503,382430.20086541714,150695.86962517863,239613.73465692447,84,2547,1648,0
-1012.4391194815263,-129.01169443147526,-37.28677176525582,384257.2479367849,150281.9211989942,241578.5145347672,31,2561,1647,0
-1012.612678499697,-128.19750249226857,-40.83956870731003,386000.18759322714,149845.29180416945,243345.52540737108,12,2585,1645,0
-1012.5858112270504,-127.41497582281438,-44.04699718303637,387654.7130369152,149389.3606937552,244920.98459924667,36,2595,1649,0
-1012.3393937617669,-126.6875282237148,-46.876479778390184,389216.7289412934,148917.4799677749,246312.13152148746,0,2644,1648,0
-1011.8624334762089,-126.03095500066028,-49.30052992084471,390682.24767685,148433.04795055193,247527.04968300762,3,2672,1648,0
-1011.1521363637603,-125.4550730901304,-51.296055041648145,392047.3144976921,147939.56936572233,248574.48404623065,0,2656,1649,0
-1010.2138488534688,-124.96612311239825,-52.843116903379574,393307.9557502905,147440.68094461726,249463.66770533027,0,2692,1653,0
-1009.0602053280683,-124.56841821759107,-53.924037739199974,394460.1219064199,146940.11945135004,250204.1710129123,0,2727,1651,0
-1007.7093999671915,-124.26515788719325,-54.52312431791247,395499.6527310131,146441.62338355905,250805.77143455768,0,2762,1663,0
-1006.1836513851944,-124.05892778788238,-54.626210507979955,396422.2797270096,145948.8317648123,251278.33346035148,0,2806,1663,0
-1004.5082044028137,-123.95124234448268,-54.21959335471213,397223.62929015706,145465.2270584643,251631.6798782033,0,2829,1665,0
-1002.7104626789071,-123.94068774355867,-53.28902180066737,397899.2080760244,144994.09377127513,251875.44830696253,0,2841,1663,0
-1000.8195681849566,-124.02112446683547,-51.81962465996753,398444.35229333345,144538.48561950575,252018.95499795995,0,2844,1679,0
-998.867358814334,-124.18288168655185,-49.79793222168244,398854.20932374825,144101.18343500988,252071.09500764104,0,2862,1684,1
-996.8911261778547,-124.41860474532841,-47.217708036109855,399123.8925136657,143684.5919014419,252040.2805183135,0,2871,1687,1
-994.9367474081009,-124.7306379056464,-44.08873635208016,399248.85961384064,143290.5279479007,251934.3800388464,0,2872,1693,1
-993.0594917854306,-125.13492288517526,-40.4444824483386,399225.6672575482,142919.89044109272,251760.5470472956,0,2871,1708,1
-991.3217024169211,-125.66111773586809,-36.345128835995745,399053.23522580485,142572.46217031276,251524.85206787882,0,2880,1733,1
-989.7888006026519,-126.35063283698251,-31.873703983650223,398734.20383048477,142247.15439392717,251231.87927920275,0,2843,1736,1
-988.5243898190454,-127.24987360840998,-27.123791701975097,398275.73222790036,141942.53282377127,250884.54457232196,0,2866,1751,1
-987.5853695598955,-128.39684772658748,-22.183088681933118,397689.44062853896,141657.1828918309,250484.15096429418,0,2841,1791,1
-987.0190808167798,-129.80756766836566,-17.12264501562259,396990.58181332814,141389.72406485735,250030.54039678897,0,2879,1788,1
-986.8624043798943,-131.46945769709242,-11.995491759947152,396196.5721983188,141138.65953944728,249522.31256038058,0,2854,1792,1
-987.1419585104346,-133.34257919750627,-6.840035211726682,395325.0567074194,140902.3406759933,248957.1723770669,0,2891,1790,1
-987.8768339008637,-135.36899821908614,-1.6840159208565995,394392.2472776696,140679.12262997095,248332.35535765343,0,2906,1783,1
-989.0836591178385,-137.48844193321386,3.4531717397744437,393412.20819460886,140467.61569014587,247645.00547881518,0,2933,1789,1
-990.7802300416206,-139.65100405540676,8.560756142161988,392396.8747065822,140266.8939558228,246892.42482994084,0,2934,1790,1
-992.9860125412639,-141.81993595593585,13.637765035901296,391356.43316138553,140076.49529023407,246072.07285247964,0,2955,1775,1
-995.722366032365,-143.96679631737547,18.692788409818064,390299.94223228685,139896.14902445776,245181.293941714,0,2941,1807,1
-999.0145319934034,-146.06487156571333,23.741725383954204,389235.939963468,139725.41920434468,244217.00684444484,0,2910,1827,1
-1002.8935887432998,-148.08456878932745,28.804062415936684,388172.7675512396,139563.48886661042,243175.50688869774,0,2953,1800,1
-1007.396345369413,-149.99128269439342,33.89879096751428,387118.6361110237,139409.11427022383,242052.3292480897,0,2909,1828,1
-1012.5635831692657,-151.7450068578788,39.04136656967425,386081.63353262667,139260.67801533625,240842.18457151766,0,2948,1850,1
-1018.4382835579557,-153.3010675251708,44.24221426461901,385069.7497743584,139116.28765384047,239538.96937387003,0,2940,1866,1
-1025.064637138708,-154.61161359634008,49.506215004058646,384090.8844285313,138973.8821876003,238135.7576842103,0,2947,1850,1
-1032.487463376832,-155.62747058902372,54.832555006207244,383152.8557304107,138831.31779768385,236624.79045436194,0,2950,1909,1
-1040.7517101765131,-156.3000205570414,60.21457558279871,382263.424793389,138686.41378501407,234997.53260869562,0,2981,1874,1
-1049.9018230030497,-156.58297103528102,65.63928894195432,381430.2909551329,138536.94537432716,233244.77878780066,0,2869,1914,1
-1059.9803313959878,-156.43372871285993,71.08645434597757,380661.08958607336,138380.5976918646,231356.80796965215,0,2867,1949,1
-1071.0251213964832,-155.8145080896439,76.52765928860138,379963.4593885595,138214.94603255278,229323.58986060167,0,2761,2020,1
-1083.0662686385092,-154.69347864320952,81.92613304427479,379345.1635006238,138037.52965072726,227135.0001347065,0,2759,2022,1
-1096.1248742189573,-153.04527572046555,87.23823581213658,378814.19688927033,137846.0081262665,224781.05483989377,0,2696,2049,1
-1110.2151018935872,-150.84999835001264,92.4166847209405,378378.8127473744,137638.33081385228,222252.18999755636,0,2640,2104,1
-1125.3472029427198,-148.09112791187385,97.41339710317851,378047.44932414294,137412.85120802544,219539.56321541473,2,2606,2153,1
-1141.5292227190764,-144.75372427588667,102.18011340301018,377828.5601147396,137168.30553688234,216635.3266505776,7,2487,2219,1
-1158.7675605351617,-140.82389380650883,106.66749270700853,377730.3568518169,136903.64257877533,213532.8553689855,0,2466,2239,1
-1177.0665149807526,-136.2896395902219,110.82413716900443,377760.5579369665,136617.8465357362,210227.0182362104,0,2452,2257,1
-1196.4263581774644,-131.14232030228078,114.59669392975435,377926.22190844157,136309.90340080656,206714.49368015197,0,2349,2327,1
-1216.8402193909212,-125.37790349595085,117.93195587184651,378233.6514444456,135978.9283771194,202994.00419737055,0,2194,2403,1
-1238.2903137713042,-118.99774728331268,120.78063772837709,378688.34481988085,135624.37956955435,199066.49488203813,0,2177,2440,1
-1260.7445489263255,-112.00841585450748,123.10238336683835,379294.93814168405,135246.28921074508,194935.2658307785,0,2152,2450,1
-1284.1546246522882,-104.42010016803694,124.87188039493059,380057.04068157385,134845.47666133684,190605.96074663493,0,2135,2483,1
-1308.4550572434343,-96.24464662890858,126.08400164596966,380976.9225301123,134423.67826613548,186086.55394681887,0,1995,2389,1
-1333.5621347761983,-87.4945572958824,126.75548836196761,382055.0235903372,133983.4729886707,181387.41493121782,0,1983,2364,1
-1359.372790731982,-78.1831332233901,126.92308228067074,383289.27363757504,133527.9596700885,176521.29793425006,0,1904,2392,1
-1385.762771415658,-68.32589211868262,126.6394018167655,384674.3787712165,133060.33886748148,171503.3805098496,16,1871,2431,1
-1412.5836107221917,-57.944301529148674,125.96680926916476,386201.243204971,132583.54130862374,166351.44982293816,12,1895,2407,1
-1439.6593227575302,-47.07217190806437,124.96924505304307,387856.5439910145,132099.91565118163,161086.0447615969,11,1829,2400,1
-1466.7829515682029,-35.76280326746196,123.70462701286364,389622.4735773123,131611.05132710226,155730.60277764077,15,1774,2440,1
-1493.71268136043,-24.094869303210373,122.22018488858798,391476.79245548067,131117.8250141683,150311.6349531698,13,1688,2435,1
-1520.168676495043,-12.177040332743323,120.54988801113568,393393.2683344397,130620.62613060206,144858.7127066717,14,1699,2443,1
-1545.831185338905,-0.1513410859475134,118.7132200800275,395342.2781543538,130119.66487211834,139404.3888330868,25,1621,2436,1
-1570.3394995577892,11.806574196635363,116.7162577698039,397291.47070008615,129615.34812293857,133984.12526995776,24,1544,2431,1
-1593.29210520002,23.49153161052137,114.55553082209875,399206.6202429923,129108.74959556291,128635.99479289864,0,1495,2433,1
-1614.2483839527779,34.67570952813151,112.22404608874952,401052.43443899736,128602.11269403409,123400.34469288301,0,1574,2331,1
-1632.7349090039245,45.11859698069163,109.72018515536901,402792.9995118913,128099.36102341684,118319.59397492772,5,1604,2255,1
-1648.2596020243302,54.58279046487694,107.0597170632553,404391.87607061485,127606.63406986435,113437.94482050165,15,1563,2232,1
-1660.3289781544145,62.852131343018115,104.28555684937528,405811.8492267233,127132.63112128047,108801.16890340179,2,1634,2153,1
-1668.4632543720022,69.7458335769285,101.46709917827907,407014.44813052245,126688.36070956397,104456.6643826929,11,1660,2157,1
-1672.21016163297,75.12596910656335,98.68689563950097,407959.6590285401,126286.21595720576,100453.55633792205,12,1963,2042,1
-1671.1569060922957,78.89600600392914,96.02191823439344,408606.3346969075,125938.91362965861,96842.8576328663,3,2092,2133,1
-1664.942851665411,80.99266479561084,93.5264619146116,408914.1550342794,125658.88217909948,93677.86687724222,0,2204,2031,1
-1653.2795306465023,81.38265442675298,91.21672506564231,408847.6230047356,125458.17222848666,91014.66881748226,12,2160,1996,1
-1635.9738538501135,80.073324866206,89.06088674830647,408381.0015811468,125348.71275382585,88912.359019506,0,2125,1950,1
-1612.9404826657533,77.13555553264244,86.98568271968796,407503.4267936361,125342.77474180318,87432.1418724649,0,2138,1891,1
-1584.1944335135504,72.7303611407071,84.901641713768,406224.2562011315,125453.45886781343,86634.73973291702,0,2133,1800,1
-1549.8298777702053,67.12362740967681,82.73224207655312,404576.9621207265,125694.81112549738,86577.2052109459,0,2047,1644,1
-1510.0004379974314,60.67054630387187,80.4320377040114,402619.21154969704,126080.89681729238,87310.51697048181,5,1995,1596,1
-1464.911672317794,53.76866469111819,77.9927235165076,400429.1769291311,126623.57183426197,88878.06166335758,0,1943,1582,1
-1414.8272008366544,46.80370652854357,75.44317387671647,398100.26658409054,127329.87596915718,91314.72954359587,3,1935,1551,1
-1360.081856219124,40.10640316354302,72.84725774245696,395734.94951615366,128200.24901933831,94646.30882440624,13,1935,1547,2
-1301.0942634503476,33.91742901429751,70.29823312656707,393436.76777899935,129227.93288773808,98888.68969130762,0,1970,1489,2
-1238.3749603073009,28.36409723549865,67.90794064906979,391302.2537222224,130399.46805522566,104046.86387120206,0,1989,1471,2
-1172.5228860783875,23.462541929716316,65.791473507188,389414.8910321093,131696.40017379302,110114.28624128317,0,1996,1462,2
-1104.2065015700114,19.145533436430362,64.04955062924682,387840.7087212366,133098.10928999673,117073.01050445596,0,2009,1455,2
-1034.1405925948516,15.300096377748572,62.75498280374347,386625.7343338583,134584.68343383225,124894.30907618439,0,2012,1454,2
-963.0656580063018,11.806359520250382,61.94844612579452,385796.41684925725,136138.85927980233,133539.70222924437,0,2011,1453,2
-891.7248182114527,8.58083030093409,61.640990627632675,385362.56028562086,137747.07517058135,142962.69799908745,0,2010,1451,2
-820.8424790836805,5.616162953605841,61.81806741995299,385321.03652520594,139399.6152546747,153110.646492214,0,2010,1451,2
-751.1087846356425,3.0013690015547496,62.44519203235168,385659.3922731852,141089.60491427366,163926.54707928115,0,2010,1453,2
-683.1624222153365,0.9159632575531461,63.4802935058591,386359.5821427266,142811.25794664057,175351.56243614634,2,2011,1451,2
-617.575409481083,-0.3972071997980118,64.88958249185141,387401.0643489157,144558.3709716174,187327.49371411098,0,2009,1452,2
-554.8512277406498,-0.6735251762328948,66.65363861121706,388762.05650274944,146323.77187385777,199798.3267336673,0,2010,1451,2
-495.4346665551125,0.32319253199994685,68.75910501248688,390419.1967971528,148099.54232212197,212711.34858876,0,2011,1451,2
-439.72476972047633,2.7580098924339556,71.18598216557187,392346.63484332786,149877.48970037687,226017.55698441266,0,2011,1451,2
-388.085551500921,6.703702596930232,73.90036483906724,394515.25005590304,151649.7469055548,239670.8335078742,0,2010,1452,2
-340.8524820958425,12.136507041839362,76.85246667425756,396892.23023093026,153409.55418111608,253626.4742912737,0,2011,1451,2
-298.33349897266004,18.944689042986703,79.97584329078693,399441.3019113335,155152.1706634237,267839.6616572522,5,2010,1451,2
-260.8052084060239,26.95037824152088,83.1876372479887,402123.91872467374,156875.82560895866,282264.22528122994,9,2010,1453,2
-228.50856256991662,35.935479276286685,86.39261686869182,404900.9538324292,158582.37708435903,296851.9232670757,0,2009,1451,2
-201.64511809935814,45.6635421312259,89.49485503224696,407734.4301306451,160277.36261967427,311552.4861637113,4,2010,1454,2
-180.3726066591115,55.898010877838125,92.41695998537126,410589.3559044601,161969.51403457896,326314.6118348908,0,2010,1454,2
-164.80308150419742,66.41451655134574,95.11742516658725,413435.1544976454,163669.90844239594,341086.9751544729,0,2010,1451,2
-155.00538696676307,77.0052554064706,97.59625964976853,416246.0276167246,165390.73986351275,355818.6678701623,0,2010,1451,2
-151.0082584604292,87.4796770066595,99.88863974675465,419000.50241720106,167143.7614713943,370459.7760877035,0,2009,1452,2
-152.8013202851383,97.66441825885236,102.05331630038698,421680.7279137783,168938.88189436233,384961.90077535965,0,2006,1456,2
-160.33467111445674,107.4020690453984,104.16211699412925,424271.84801190236,170783.41546039708,399278.35665303585,0,2007,1456,2
-173.51837139566385,116.5484988095717,106.29270097420749,426761.54380976595,172681.975922186,413364.7312425065,0,2008,1456,2
-192.22251277542094,124.9697553768787,108.5249394089797,429139.63920106244,174636.69562936458,427179.4302694551,0,2010,1451,2
-216.27922754671602,132.5398925676506,110.94071831537599,431397.65628370974,176647.5831051519,440683.68426025123,1,2011,1451,2
-245.48726816021104,139.13917986843873,113.62551330460975,433528.29355043144,178712.97657628258,453841.4996508462,3,2009,1452,2
-279.616421078304,144.65150307958424,116.66892057573673,435524.8296567603,180829.87599474602,466619.3965799554,0,2009,1451,2
-318.4106730659044,148.96167800729057,120.16016312626357,437380.44545151875,182993.99034484453,478985.7824772692,0,2009,1451,2
-361.5927091054113,151.95374657517607,124.1773619927082,439087.51238356216,185199.63419805135,490910.5944649085,0,2010,1452,2
-408.8684575534773,153.5104542460019,128.77586934959908,440637.01612376573,187439.58691327478,502365.09512391826,0,2005,1454,2
-459.9289702649568,153.5143486564014,133.9821007014033,442018.28699727624,189705.0522667173,513321.5523605519,0,2004,1455,2
-514.4510525979047,151.85060478694498,139.7941803224844,443219.0270032334,191985.89950677595,523753.17056629225,0,2006,1455,2
-572.0972315161798,148.41022262264642,146.1867301286984,444225.4220017047,194271.06332351864,533634.0315801516,0,2009,1453,2
-632.5161350744401,143.09217571944058,153.11737875329277,445022.1624463635,196548.97133413478,542938.7515359746,0,2005,1455,2
-695.3457117102932,135.80435975814837,160.5336300529171,445592.38030523655,198808.05153110597,551642.2183532001,0,2004,1455,2
-760.2163922631198,126.46363037166398,168.37750223180043,445917.5675596202,201037.12438589253,559719.3244762098,2,2006,1456,2
-826.751955914513,114.99429398814335,176.58627490901557,445977.56123134226,203225.5063488368,567144.5524597546,0,2005,1456,2
-894.5704817484012,101.32433335515407,185.0912440893402,445750.67432887043,205362.98947761956,573891.7681130333,0,2009,1451,2
-963.2834449199779,85.38073648808076,193.81676107328417,445213.98073880613,207439.78379858282,579934.1486419229,0,2008,1453,2
-1032.4910446169918,67.08543096846637,202.681323872586,444343.90840205114,209446.41848896712,585244.1143349321,0,2009,1453,2
-1101.7781716596003,46.352174351314346,211.60269177594034,443117.33585655375,211373.66630590658,589793.5338259019,0,2008,1454,2
-1170.7128689417225,23.086144709691094,220.50527284027626,441512.91803168587,213212.42092671763,593554.0164824699,0,2010,1452,2
-1238.8467579747883,-2.8122240049464384,229.32542345812797,439512.29518137727,214953.38069722994,596496.9877290148,0,2007,1455,2
-1305.7185682284353,-31.440373525971427,238.01353769766015,437101.2849979024,216586.5337442112,598593.7576686945,0,2006,1455,2
-1370.8577188971087,-62.88556001326357,246.53389032807902,434271.0855675852,218100.5799984047,599815.6687727708,0,2009,1455,2
-1433.7863513146688,-97.21557996485835,254.8623512717976,431019.3297018474,219482.46076126356,600134.2434891021,0,2010,1453,3
-1494.0234870279796,-134.46778365594065,262.9820864794731,427350.9931523424,220717.0793468196,599521.441443785,0,2008,1456,3
-1551.0901416392455,-174.63758101175637,270.87825491065126,423279.13910053566,221787.18518284636,597950.0428441085,0,2009,1453,3
-1604.514707038524,-217.66787898240136,278.5324420998246,418825.2864295942,222673.43307823656,595394.1345153877,0,1990,1469,3
-1653.8426399379864,-263.4399478670724,285.9166466596322,414019.2963267474,223354.66844209837,591829.7945542352,0,1980,1475,3
-1698.647731950164,-311.76551559709213,292.9879622370964,408899.0172332127,223808.378134255,587235.961195233,0,1967,1490,3
-1738.541630195561,-362.37887122951065,299.68724139900536,403509.652250936,224011.42528982417,581595.4342398021,0,1949,1505,3
-1773.1843092526153,-414.92785412224066,305.9439195359603,397902.5844110333,223941.3050120497,574896.0736276893,0,1931,1518,3
-1802.2945456844654,-468.9654734807522,311.68436023598986,392134.1003043517,223577.61649285248,567132.1773674716,0,1921,1528,3
-1825.6602794301718,-523.9490353963143,316.83887672891626,386264.2200214654,222903.33267393752,558305.8086731071,0,1923,1532,3
-1843.151652214249,-579.2507957169312,321.34547647703886,380355.18007555,221905.87589931753,548427.8733247106,0,1909,1541,3
-1854.7322554530801,-634.1725025596188,325.15071828457815,374469.96286792966,220577.92247239887,537519.0553616188,0,1908,1542,3
-1860.4647185406711,-687.957348001205,328.20995758040874,368671.3358593031,218917.75365839683,525610.6191940136,0,1919,1525,3
-1860.5148483519888,-739.80089629442,330.4902444287578,363020.9705238206,216929.21911006962,512744.91972875985,0,1910,1537,3
-1855.1563543749737,-788.8587532042474,331.9746384937078,357578.53959317465,214621.4791860927,498975.8562570862,0,1917,1528,3
-1844.7733924236184,-834.2505321321856,332.6628469604634,352400.5660022717,212008.51059879907,484368.9763004734,0,1909,1539,3
-1829.860372698474,-875.0666430906073,332.56742589284937,347538.4505089206,209108.39456722653,469000.49673375266,0,1928,1528,3
-1811.0151077509183,-910.3801674215589,331.70964203562903,343036.2504241414,205942.8252437808,452955.87091139395,0,1897,1545,3
-1788.9088491892849,-939.2677067382629,330.1184199852707,338928.7250863108,202537.18203693576,436328.39613937354,0,1920,1529,3
-1764.2285901250582,-960.8436863630443,327.8343248444645,335239.19111047284,198920.99786269994,419217.4750509211,0,1933,1517,3
-1737.6212023593798,-974.3016270741587,324.9149457576043,331977.49860263465,195128.6737366932,401727.6224953494,0,1963,1491,3
-1709.6647567163318,-978.9645651497748,321.434990757837,329138.7859155541,191200.32907024634,383969.34258053696,0,1956,1492,3
-1680.8589790927897,-974.349152342196,317.4865694068514,326703.0409572456,187182.30862688966,366061.2440079864,0,1957,1497,3
-1651.625401807108,-960.2219934610696,313.1829940404363,324635.5300758558,183126.68525815912,348132.3160430983,0,1945,1507,3
-1622.3210792426742,-936.6326156645177,308.64899718295806,322888.41618975264,179088.814949123,330322.1679841581,0,1946,1503,3
-1593.259028785202,-903.9344951951315,303.99297762048485,321403.83582210937,175122.7577997653,312777.3316472585,0,1952,1497,3
-1564.7186109308404,-862.7981181402364,299.28168053317086,320117.9363569987,171276.77241364622,295645.62173215026,0,1944,1506,3
-1536.9392339756364,-814.1992371008249,294.5253102219236,318965.4614602954,167591.04108502876,279070.5317550137,0,1947,1504,3
-1510.102585363391,-759.373265413262,289.66673049516237,317885.0524488956,164097.29167638154,263184.98013822804,0,1961,1493,3
-1484.3136218238517,-699.7576538226746,284.5768401182215,316824.09752821055,160819.42648904226,248105.8792852194,0,1976,1474,3
-1459.5857434721288,-636.9433841934189,279.0626691017975,315741.69747810415,157775.05265218287,233931.49935753967,30,1997,1463,3
-1435.8292474083898,-572.6312345628461,272.8865224180028,314609.9764044495,154977.7110013181,220740.69487844958,281,2004,1460,3
-1412.847142335826,-508.590123257701,265.7907751502744,313414.3472833219,152439.14366868968,208593.30476454287,940,2004,1457,3
-1390.3491876391354,-446.6026736957719,257.53477989163486,312152.975076536,150171.33863818014,197531.47643373202,2259,2008,1455,3
-1367.9904896848873,-388.370383480425,247.947940448694,310835.7534101192,148188.58939642966,187580.83835336633,2803,2005,1459,3
-1345.4262257786381,-335.38438511641795,236.96882255335694,309483.3292607428,146508.60117954251,178751.10610344395,2886,2006,1455,3
-1322.3739557065508,-288.7673247917193,224.63754823520807,308127.5389609593,145150.02022918293,171036.01283564797,2784,2010,1451,3
-1298.6798797434326,-249.09688715461652,211.066013512935,306815.1444582856,144125.66634544602,164412.36034690388,2841,2010,1451,3
-1274.3738215257758,-216.31013244527577,196.44229826801237,305613.80204687256,143435.7056529535,158839.48967638228,2723,2010,1453,3
-1249.6944079326786,-189.80955442581626,181.08075700936877,304613.8918076961,143065.852412099,154261.49491952817,2615,2011,1451,3
-1225.0602726643624,-168.740123801597,165.45013859647887,303918.33304271166,142990.25493249737,150612.9292809285,2502,2008,1451,3
-1200.9781320688382,-152.2513174434762,150.10737270974516,303620.99670839886,143174.40714748122,147826.09013296486,2368,2013,1450,3
-1177.937333967551,-139.61282439766768,135.5759138122351,303786.7530747435,143575.78509856827,145836.70776539933,2319,2011,1450,3
-1156.339686344232,-130.20945417406296,122.26046749422488,304444.9325567778,144144.9248574606,144585.9942383703,2298,2012,1452,3
-1136.4581229755663,-123.48949006421687,110.42094218388819,305594.972515922,144829.72518611627,144019.35217499363,2328,2022,1451,0
-1118.4147799710584,-118.91938446731021,100.18263651527623,307215.6702121721,145581.32309256538,144083.78512209962,2384,2040,1453,0
-1102.1880526361806,-115.97386277378192,91.56176143611303,309272.07349043986,146358.3345533794,144726.09085930538,2526,2039,1451,0
-1087.6471197422402,-114.15900754871706,84.48973406591664,311719.29724824254,147128.55463769168,145892.60358066106,2555,2041,1449,0
-1074.5970546438266,-113.04788342342228,78.82717397230304,314504.22109808715,147868.76433337395,147530.1669623643,2578,2062,1449,0
-1062.8259651219696,-112.31445340196314,74.3742551985193,317566.2172178083,148563.68178258193,149587.91372136847,2587,2056,1450,0
-1052.1518960275116,-111.75453528605068,70.89776483514527,320838.8340179521,149205.24870615196,152019.28301258292,2590,2056,1450,0
-1042.4507525907575,-111.27821596025578,68.1785895705431,324253.11752024107,149792.68903748534,154783.10840188302,2526,2064,1450,0
-1033.6554808173205,-110.87914981317392,66.05107963907722,327741.33182847954,150332.32565112642,157843.12232442063,2468,2067,1450,0
-1025.7430248940213,-110.60226397813534,64.40625954386113,331240.54950874916,150835.28420405774,161166.37295882925,2419,2062,1454,0
-1018.7190911266276,-110.51553807420557,63.163392077781964,334696.4584521393,151312.8123955064,164721.2617359092,2319,2069,1452,0
-1012.6003367456201,-110.68648105350908,62.23703148013946,338066.2857462049,151771.79871043147,168475.88161342338,2218,2076,1451,0
-1007.3971169127705,-111.16772433667796,61.519654237571345,341319.59605347883,152213.11497376586,172397.21710015042,2142,2074,1454,0
-1003.1001216665967,-111.98926842810269,60.88267226736762,344437.46506438334,152632.80787089057,176451.18388529302,1961,2084,1452,0
-999.6741551537567,-113.15361071333685,60.189880633410475,347410.9208769753,153024.43075610918,180603.01545680268,1799,2098,1455,0
-997.0599433740373,-114.63334691293807,59.31652494538028,350238.76649729745,153381.1482092404,184817.77157643647,1615,2102,1455,0
-995.180323028798,-116.3713797885168,58.16847319762126,352924.81328702695,153697.24738698985,189061.09500445385,1445,2100,1454,0
-993.9473963365167,-118.28482532656668,56.69430091737975,355475.2868097692,153968.88758548722,193299.95374643782,1314,2109,1453,0
-993.2703328928316,-120.27491745425303,54.883936096944865,357897.0250961691,154193.9703979215,197503.1708734299,1109,2116,1454,0
-993.0635554320178,-122.24177666508062,52.75560204218352,360196.26224919455,154371.4785190041,201641.98368177802,911,2138,1453,0
-993.2522757457057,-124.09704713982175,50.34028559981254,362377.8332646037,154500.85368435705,205690.47340974142,791,2151,1458,0
-993.7734305512145,-125.77048651283401,47.67143965575723,364444.9736288653,154581.7928387278,209625.62868491703,737,2152,1464,0
-994.5733184174832,-127.21344495304139,44.7807042256911,366399.66955958976,154614.44299498806,213427.26004922044,657,2192,1634,0
-995.6042273647379,-128.4009216555648,41.69768487263653,368243.1521186139,154599.69355830568,217077.86584450674,542,2234,1636,0
-996.8217651993998,-129.33064262070596,38.45174681598872,369976.31169897254,154539.29971071778,220562.49710592098,445,2233,1642,0
-998.1831976123812,-130.01913839941412,35.07359589286788,371600.15793712356,154435.79614216235,223868.78428176133,336,2241,1639,0
-999.6465092050684,-130.49720566647332,31.595662633584222,373116.2538171604,154292.31483513722,226986.99100866984,243,2290,1634,0
-1001.1700762107209,-130.80576700772704,28.051055247447007,374526.9739931593,154112.3644406534,229909.94557219802,231,2296,1635,0
-1002.7126386487788,-130.9910116154174,24.47091403590339,375835.6567824076,153899.57268667803,232632.95921788368,194,2335,1643,0
-1004.2333398579061,-131.09921026799938,20.88168658623361,377046.6467208219,153657.49208952257,235153.6972339307,131,2340,1640,0
-1005.6921635385291,-131.1727883546181,17.305115330371112,378165.17517854285,153389.60108170178,237471.8976884528,58,2392,1639,0
-1007.0510983066598,-131.2480758499496,13.761427138308392,379197.1416276432,153099.48972788997,239589.01894353775,56,2392,1649,0
-1008.2759043318747,-131.35457813173562,10.273189732009174,380148.84929954435,152791.07837482195,241507.90015291199,41,2369,1678,0
-1009.3385033995926,-131.51527799152487,6.867286571579848,381026.72559101856,152468.68898487467,243232.46821677955,0,2356,1693,0
-1010.2194505931031,-131.7472797297732,3.5745499972237385,381837.0914833682,152136.9031897305,244767.51052411593,0,2388,1682,0
-1010.9088333095054,-132.06266985700753,0.42819822277508435,382586.02621488477,151800.31625140167,246118.46835338548,0,2428,1675,0
-1011.4047181110926,-132.46997887925613,-2.5377655537442325,383279.31697791757,151463.31034437253,247291.24522938815,0,2432,1685,0
-1011.7101517554719,-132.97625480966408,-5.28950272248141,383922.4450059931,151129.8799484363,248292.0790261851,8,2447,1686,0
-1011.8307252471157,-133.5884745556689,-7.793269852036221,384520.538403345,150803.54103054886,249127.453632691,0,2475,1691,0
-1011.7738250587513,-134.3127653593039,-10.014899823335758,385078.2500242298,150487.31120149596,249804.01017810474,0,2503,1687,0
-1011.5488073243989,-135.15178295151648,-11.919818069371193,385599.5810845619,150183.66892831156,250328.47070879844,0,2493,1719,0
-1011.1671027369289,-136.10252124387657,-13.473561075442454,386087.69965048454,149894.47149438344,250707.58110878803,0,2492,1731,0
-1010.6421698105439,-137.15640068218488,-14.642242220123027,386544.78552356875,149620.88674278738,250948.0823793055,0,2526,1712,0
-1009.9891066414027,-138.3010870137351,-15.393025838603704,386971.8989864243,149363.36516113396,251056.7172696443,0,2536,1717,1
-1009.2240254242373,-139.52226158929625,-15.694723815153989,387368.8801984453,149121.6525159393,251040.23871171463,0,2490,1752,1
-1008.3645654583646,-140.80547952601623,-15.519003619913608,387734.3387866288,148894.81973833876,250905.39025864514,0,2503,1768,1
-1007.4322908303662,-142.13979202207665,-14.843740502673095,388065.76927725796,148681.27637619604,250658.8596802129,0,2512,1775,1
-1006.4551614417085,-143.52143533164423,-13.65827858051656,388359.76147468644,148478.74462322416,250307.21671249336,0,2526,1778,1
-1005.4677163183524,-144.95313035187985,-11.968195266102555,388612.3585657033,148284.2359836568,249856.80492705322,0,2553,1758,1
-1004.508976581148,-146.4395291985052,-9.797268179000607,388819.6030004872,148094.2107483176,249313.54201180578,0,2513,1798,1
-1003.619747713599,-147.98382894321364,-7.184139694233964,388978.01485198864,147904.98295565633,248682.71101147617,0,2507,1805,1
-1002.8410400300138,-149.58718513977925,-4.174557959374508,389084.7279646522,147713.1599783868,247968.8793063898,0,2519,1789,1
-1002.2141208806648,-151.2493180309702,-0.8146088239502292,389137.38350249757,147515.9366414111,247175.9458532916,0,2561,1762,1
-1001.7808510657886,-152.9698024032906,2.8527945381262554,389134.04458395176,147311.19143170363,246307.23627747173,0,2528,1822,1
-1001.583801249854,-154.7499339122722,6.789847231462377,389073.2398043156,147097.4097557499,245365.59507608978,0,2546,1821,1
-1001.6670363517524,-156.5939267429438,10.964891821167432,388954.0967105634,146873.558125463,244353.4521748486,0,2547,1853,1
-1002.0774248345223,-158.50811684881688,15.352970701828042,388776.50720052724,146638.98221025013,243272.81351425214,0,2545,1825,1
-1002.865874270932,-160.49806285299013,19.93651419487621,388541.2795654653,146393.30956242693,242125.14984381752,0,2584,1812,1
-1004.0882152658054,-162.56481536604952,24.70552705216846,388250.2202463497,146136.35743430187,240911.28268102233,0,2579,1839,1
-1005.8054282137053,-164.70151863194585,29.656085632153037,387906.1017736372,145868.00901482863,239631.31634418745,0,2540,1869,1
-1008.08328123317,-166.8905454515086,34.78670626691772,387512.5355037171,145587.9878678551,238284.54512490326,0,2518,1871,1
-1010.9917009389577,-169.10178297852727,40.09361687795033,387073.84276541794,145295.58799946806,236869.3562041651,0,2505,1869,1
-1014.6040360682538,-171.29321127521388,45.56629817782938,386594.995319486,144989.46945925427,235383.14558285175,0,2424,1908,1
-1018.9963195479979,-173.41358020446103,51.183683977441945,386081.60312666406,144667.55148378632,233822.18715118014,0,2411,1922,1
-1024.2467409567037,-175.40529236448316,56.911572141565706,385539.92589671095,144327.03397725013,232181.5208127436,0,2326,2005,1
-1030.4355139618967,-177.2060970596032,62.70190696417893,384976.9069611222,143964.59187064713,230454.90570920755,0,2278,2075,1
-1037.6447337652176,-178.75006263402196,68.49364584397384,384400.21005213907,143576.7063909758,228634.76161822447,0,2276,2073,1
-1045.9571230108554,-179.96921929881134,74.21532755975491,383818.255167454,143160.00782138272,226712.15422039776,0,2167,2146,1
-1055.4531265990752,-180.79663609204206,79.78954236922743,383240.25870277925,142711.55217987523,224676.93293282672,9,2121,2190,1
-1066.2072215641847,-181.1699823099685,85.13764533648204,382676.27371502895,142229.0517464193,222517.99133282737,2,1983,2103,1
-1078.2847103697259,-181.03424862608298,90.18385878454234,382137.22341111035,141711.07885360133,220223.58692081078,0,1980,2126,1
-1091.7395442815457,-180.34339998484506,94.85983788242004,381634.9144332162,141157.24577861995,217781.69259269754,0,1909,2213,1
-1106.6131764515826,-179.0609183264268,99.10901896525472,381182.0214948184,140568.3481043215,215180.37529784665,0,1851,2229,1
-1122.9346742518233,-177.1589771973214,102.88910472574351,380791.988388283,139946.4026987291,212408.18635854902,0,1789,2283,1
-1140.7218142195645,-174.61647035543348,106.17255086532289,380478.78643280314,139294.5306989828,209454.5383203747,5,1811,2336,1
-1159.981345973901,-171.41707863081697,108.94535773540044,380256.6186234092,138616.75280698115,206310.09817604575,0,1751,2370,1
-1180.7071628535177,-167.5486515713522,111.2043202591954,380139.6668183811,137917.75155338325,202967.18932203253,2,1695,2406,1
-1202.8770875572302,-163.00386727297422,112.95334185962857,380141.85787814425,137202.59428570335,199420.14140372584,12,1655,2430,1
-1226.4492383310953,-157.78118226008672,114.20019237495323,380276.6553149453,136476.51498719433,195665.6250656573,2,1617,2453,1
-1251.3587706971782,-151.88500189216893,114.95479385122675,380556.8744162461,135744.83424231486,191702.95664031286,0,1528,2490,1
-1277.5155663139888,-145.32466998746077,115.22876498327797,380994.4430218198,135012.9452697281,187534.27646446266,0,1491,2560,1
-1304.8022271239302,-138.1131068460309,115.03545904687589,381600.09657352534,134286.3159136237,183164.7012084581,1,1487,2554,1
-1333.0723139814725,-130.26592383437884,114.38990378450504,382383.00397838006,133570.4836432733,178602.4970413476,1,1387,2599,1
-1362.150006412027,-121.80113234533752,113.3082789316123,383350.2821980278,132870.99412864004,173859.14763978007,2,1382,2615,1
-1391.8305856979725,-112.73983205461238,111.8069683825149,384506.468632528,132193.300258696,168949.43194724078,0,1343,2640,1
-1421.8802259641454,-103.10820922680114,109.90133089301996,385853.03415765485,131542.6159807798,163891.56403684037,3,1221,2654,1
-1452.0347087392925,-92.9402646799201,107.60409223033578,387387.9333255812,130923.67482421723,158707.19883761392,1,1151,2683,1
-1481.9969907297743,-82.28047565165944,104.92273983306303,389105.24021890655,130340.48056139621,153421.4094783456,2,1095,2697,1
-1511.4341636068802,-71.18623673816543,101.85566317419293,390994.9278402582,129796.16220940644,148062.8312589361,15,1001,2716,1
-1539.9744721916836,-59.730244152959216,98.38845769922357,393042.75530091126,129292.9346453785,142663.8867397918,14,1025,2685,1
-1567.205332844986,-48.002824144207864,94.49197279134376,395230.30292150343,128832.22620664134,137260.87372197583,14,1026,2674,1
-1592.6736501556472,-36.11422991173176,90.12242835535339,397535.23374274524,128415.05501291312,131893.7727865815,16,995,2659,1
-1615.8878776736601,-24.19649919594616,85.22430239573069,399931.6309668959,128042.59888310512,126605.99367563942,17,1038,2608,1
-1636.3230038974402,-12.402706742565954,79.73899743087908,402390.29188365245,127716.9927857719,121444.15228961204,17,994,2622,1
-1653.431633980243,-0.9018430811756887,73.62076932016889,404879.0163584176,127442.42047597622,116457.6443734087,15,1133,2522,1
-1666.658815146972,10.129400658696689,66.85401212622534,407362.6824579764,127226.14598276769,111698.23176990816,0,1235,2439,1
-1675.45793690898,20.517736238732972,59.46419582727046,409802.90806276863,127078.96572846263,107219.82581253743,0,1395,2375,1
-1679.3085193876923,30.107172894114143,51.52086595234738,412157.5402908549,127014.9716659605,103078.17144075797,0,1626,2227,1
-1677.7335282591257,38.768696873679424,43.13351599287901,414380.4355246586,127050.91853948563,99330.52130479965,13,1730,2133,1
-1670.3191105262474,46.39891397438379,34.43837696564037,416422.2782774368,127205.53341516844,96035.56044086709,13,1957,1974,1
-1656.7440134349815,52.911940037568925,25.577387277388393,418232.9809645928,127498.95962317518,93253.44884197012,4,1983,1839,1
-1636.8124531851242,58.23665122879171,16.678298896673567,419765.15826701495,127952.52211726067,91045.8608582473,6,1955,1805,1
-1610.4769774713889,62.33154885951522,7.84372317925518,420978.9282325205,128588.95729035453,89475.66528391824,11,1975,1755,1
-1577.8444802279541,65.21794853713446,-0.8471881516000266,421848.9060615903,129432.92083976162,88605.68803458111,12,2013,1679,1
-1539.1620981878266,67.01297084039786,-9.324408866979127,422371.33506745583,130511.12874689762,88496.70974985181,15,1899,1669,1
-1494.7804912052459,67.93959364573931,-17.507111188852054,422568.40966817836,131851.11682726684,89205.0165635846,8,1896,1626,1
-1445.1062516215143,68.30618945719917,-25.28719945809696,422489.05441959476,133477.91461369055,90779.68992686667,12,1899,1609,1
-1390.5725839290585,68.46528834661837,-32.52080836383967,422206.24516540946,135409.41024226087,93260.4896403337,12,1900,1598,2
-1331.6426559304293,68.76185331440304,-39.02662509624998,421811.66263709543,137652.35701127903,96676.77480634567,7,1895,1579,2
-1268.8310297065204,69.47866906940263,-44.59264612930241,421407.5423024883,140200.3306948575,101046.72496890287,2,1894,1553,2
-1202.7235386980587,70.79798708014542,-48.99670815018166,421095.0942188496,143033.73455308753,106376.30348847173,1,1952,1511,2
-1133.9860336739052,72.79262394191342,-52.0340757190934,420963.0506123793,146121.53545057174,112658.24589886454,0,1942,1506,2
-1063.356061041061,75.44087904921422,-53.538555485996525,421080.24956701405,149425.047596639,119871.88127751299,0,2010,1455,2
-991.6172246645858,78.65524061670794,-53.39360412576817,421491.7619742585,152903.76712369715,127984.24503534124,0,2011,1452,2
-919.5711769296352,82.31295346464007,-51.53464249011322,422217.61875791196,156520.9249838752,136951.7675014647,0,2009,1454,2
-848.0171548978802,86.28492977088416,-47.942654241266055,423254.60417491884,160246.47523555832,146722.13967900662,0,2011,1453,2
-777.7333094990428,90.46918418314968,-42.633072925776055,424580.6566498449,164057.72774235313,157236.75867960003,0,2010,1455,2
-709.4592435532381,94.82114639069351,-35.6456791641439,426159.8789991011,167938.3993787286,168433.04663046767,0,2009,1452,2
-643.8812404638649,99.36726817355728,-27.035827029653007,427947.0948980315,171876.46261372522,180246.21277149176,0,2010,1452,2
-581.6185407420479,104.20082186615959,-16.86693848557863,429892.356825635,175861.55847257428,192611.27810562696,0,2011,1455,2
-523.215072541834,109.4585061189064,-5.208993961273078,431944.6281854765,179883.02536324007,205464.90725032048,0,2010,1454,2
-469.14010565752596,115.28002362790635,7.855280771122817,434053.84351811616,183929.13540334738,218746.34034174378,0,2010,1451,2
-419.79544993708544,121.77013807242328,22.222089447974042,436172.2267055481,187987.3302168723,232397.94403284934,0,2010,1453,2
-375.52371509619746,128.9779506825538,37.7631354931918,438255.4013577011,192044.8066951316,246365.22585987046,0,2010,1454,2
-336.6127924606827,136.88998920863912,54.32761884584933,440263.0954289358,196089.01867967524,260595.87965877054,0,2011,1452,2
-303.297354950772,145.4307405085067,71.7440104532284,442159.65213922254,200108.03588799245,275038.35524310934,0,2007,1453,2
-275.75966966013175,154.46891599627492,89.82009699135412,443914.922271955,204090.7962261855,289640.76186952513,0,2009,1452,2
-254.13046253168284,163.82994740223992,108.34607168282733,445505.841291764,208027.33926788444,304350.58871610416,0,2010,1452,2
-238.49045197807837,173.31274490733855,127.10446051975786,446918.0978165954,211908.97613367793,319114.7456413452,0,2007,1454,2
-228.871157768328,182.7086915927006,145.8900738038099,448147.0037277796,215728.2744413175,333879.5983861692,0,2009,1453,2
-225.25432520984592,191.82197812628976,164.53842096319397,449197.3224286638,219478.8173364367,348591.5212393831,0,2009,1451,2
-227.57283622335035,200.4846666650665,182.9473545512426,450082.1937895803,223154.5325244638,363197.59222252097,0,2010,1452,2
-235.71503890623768,208.5607275647199,201.0773707078029,450821.13073652476,226748.42922318878,377646.13410891336,0,2010,1452,2
-249.53056832684462,215.94186901216653,218.93445688459434,451437.2777154299,230251.04456349605,391887.71324668307,0,2008,1453,2
-268.83369240184663,222.5400487845935,236.55020986652337,451954.86568185507,233649.2678472608,405876.0238060548,0,2008,1455,2
-293.40280903117645,228.27816474500474,253.96818109467458,452397.42726571084,236926.20153330688,419568.0466632263,0,2009,1453,2
-322.97871809260096,233.0793723260278,271.23606913869986,452786.4016364065,240062.15128264,432924.1392053937,0,2009,1453,2
-357.2643264873619,236.85828640776134,288.4016623944812,453140.04149671836,243036.02063742286,445907.96357137157,0,2010,1451,2
-395.9283318417888,239.51735151322157,305.51197334197417,453472.78825868806,245826.55914773792,458485.8670597322,0,2010,1452,2
-438.61376473747777,240.94775640510872,322.6140012834002,453794.8969456438,248413.49552106022,470626.3445722743,0,2010,1455,2
-484.94631876464547,241.03235689208753,339.7536728528174,454112.0807841264,250778.23410824977,482299.8087203353,0,2008,1455,2
-534.5389293754242,239.64902335281653,356.9692955879594,454425.06838348403,252903.75936828807,493478.1284829918,0,2009,1452,2
-586.9946223928974,236.67376834215077,374.279301229942,454729.0039038879,254774.16886693673,504134.08497812407,0,2009,1453,2
-641.9075005811803,231.98310444704333,391.6689306672186,455012.8313846034,256374.45724207387,514241.30568531767,0,2011,1453,2
-698.8628099944871,225.4558996703831,409.0808514954346,455258.89511026617,257690.76470685992,523774.341405591,0,2010,1451,2
-757.4421036509424,216.97494401818616,426.4125638718753,455442.8650298545,258711.25893370915,532708.5668609141,0,2009,1454,2
-817.234300348898,206.4272356275373,443.5210623938335,455533.9715529146,259427.7223124147,541020.282885865,0,2009,1453,2
-877.8453640115592,193.70294457388647,460.2309198907349,455495.4883606632,259837.19139354938,548686.8601142189,0,2010,1452,2
-938.9037721267126,178.6939488533227,476.3442297972268,455285.6996324061,259942.8879714596,555686.6499873748,0,2011,1452,2
-1000.064949583028,161.29238123084068,491.65508093293005,454859.6424730444,259754.34421238556,561998.9441364048,0,2007,1455,2
-1061.0126318010691,141.39053562062668,505.96586111642586,454171.2176390545,259286.85819761376,567603.8536684149,0,2010,1452,2
-1121.453763488299,118.88345468945037,519.1010409117079,453175.28528915124,258560.15627383054,572481.8536796619,0,1998,1463,2
-1181.1100402435222,93.67324419755184,530.9176215665537,451829.8812375588,257596.26421787235,576613.2534049997,0,1983,1470,2
-1239.7099319304004,65.67316815140138,541.3088296772464,450098.25837763934,256417.30062157524,579977.7347216847,0,1979,1479,2
-1296.9833099435125,34.8103538214662,550.1985318239593,447950.472717783,255043.7043932866,582553.9032724402,0,1978,1479,2
-1352.6593930853614,1.0277407335598068,557.5314664636169,445364.81972060486,253492.7149272396,584318.927360277,0,1964,1493,2
-1406.4648170014163,-35.71251543503238,563.2674365751847,442329.1007253221,251777.33333135745,585248.299009912,0,1964,1493,2
-1458.1204930930007,-75.42320830542049,567.3818718577357,438841.33202435286,249906.09637892502,585315.7846443453,0,1946,1502,3
-1507.3402476353235,-118.0846916789065,569.8670258441232,434909.8569742586,247883.28465308633,584493.7168216588,0,1940,1508,3
-1553.8311671528354,-163.6374332885452,570.727895841905,430553.2445937167,245709.14414211636,582753.5649333659,0,1949,1502,3
-1597.294908069842,-211.97629694800477,569.973309581394,425800.23124873324,243380.20279773112,580066.693952119,0,1954,1502,3
-1637.4318673090295,-262.9458033810019,567.6067435524541,420689.5892140794,240889.9610030553,576405.3969136425,0,1938,1510,3
-1673.946496773997,-316.3324167062483,563.6222270755003,415269.88155079074,238230.04919375508,571744.1380636,0,1943,1504,3
-1706.5525802944662,-371.8510525823023,558.008625096807,409598.8026807635,235391.8077676419,566060.8643798108,0,1932,1515,3
-1734.9812801882651,-429.12680570043045,550.7604530695642,403741.64757661405,232368.09432596076,559338.3814145091,0,1944,1509,3
-1758.990728696557,-487.67714056399734,541.8890134020556,397769.3891046592,229154.7735284387,551565.7334121154,0,1937,1514,3
-1778.3766585795408,-546.9038382848933,531.4299978888832,391756.65591030865,225751.46382136882,542739.4696669065,0,1931,1515,3
-1792.9873900630419,-606.100720840743,519.449413736231,385779.2165554745,222161.72436811094,532864.8398284966,0,1921,1526,3
-1802.7398025020284,-664.470131240751,506.04901637842545,379911.61112437415,218393.09461525988,521957.08507769566,0,1918,1528,3
-1807.6322651631376,-721.139001478972,491.3673386370192,374225.4283438338,214456.92389155724,510042.660878458,0,1922,1527,3
-1807.7573682833263,-775.1746506360042,475.57263956093817,368787.6070722166,210367.67477243682,497160.0550330627,0,1924,1524,3
-1803.3114412293983,-825.598410015005,458.8506357040085,363658.91286099603,206141.9128953321,483360.4138486119,0,1921,1523,3
-1794.5928981885654,-871.3974342798758,441.3914648861928,358892.7869345981,201797.23070061792,468707.9954675789,0,1927,1520,3
-1781.993988160783,-911.5432740737014,423.3772631171105,354533.8453119093,197351.15861504988,453280.0677916112,0,1916,1537,3
-1765.9929413672437,-945.0168895825999,404.9747598961611,350615.9940915687,192820.79307894706,437166.60604116094,0,1921,1524,3
-1747.1327469922453,-970.8415275223972,386.3363879380726,347160.34902350855,188224.14603961998,420469.680443934,0,1926,1522,3
-1725.9747481356337,-988.1339979753343,367.6038070076139,344172.81196022604,183583.23414012106,403301.9324271398,0,1928,1519,3
-1703.0479608289875,-996.1650096001156,348.913059141853,341642.30405840307,178927.4714865248,385785.4656425799,0,1921,1532,3
-1678.8209644931128,-994.4138591617561,330.4097048660187,339540.8689584585,174295.23361921436,368052.2785683871,0,1916,1527,3
-1653.700002000207,-982.6200354657091,312.26269101542465,337825.1818608696,169732.54789484292,350244.925584408,0,1923,1522,3
-1628.041676026408,-960.8270911824154,294.6580145153705,336438.5001690082,165289.75057107524,332516.1590010673,0,1926,1522,3
-1602.1645837926803,-929.4081906955804,277.77762204896464,335313.57901919296,161017.02886554014,315026.25223389064,0,1948,1505,3
-1576.3527574137756,-889.0721438194669,261.77562361364704,334377.192104247,156959.47560666583,297937.13767057133,0,1952,1498,3
-1550.854174702122,-840.8489746280312,246.75756689051212,333554.924336999,153153.64697356985,281405.89883741905,0,1964,1483,3
-1525.8726732610912,-786.0476459291955,232.76893999414412,332775.1787408674,149627.10476006838,265579.2316933623,0,1952,1497,3
-1501.5498955464031,-726.1891772273874,219.79582645034037,331972.93155790085,146399.9910088286,250587.60687779004,0,1941,1511,3
-1477.9453760836268,-662.9447100481443,207.7759086788543,331092.85038595746,143487.0639315511,236540.59638831025,8,1940,1518,3
-1455.0248902707995,-598.092753543165,196.61430618199591,330090.7859831182,140899.48492043125,223525.50364215008,138,1965,1485,3
-1432.658646360321,-533.475430285941,186.1973522017829,328933.96031345753,138646.2223697309,211608.11344723596,815,1968,1490,3
-1410.6286587754857,-470.9439614355629,176.39830337128407,327600.97522547696,136734.9343797638,200834.08352964133,2050,1973,1482,3
-1388.6516486176545,-412.2702573651669,167.06926290877757,326082.91109294887,135171.91268968108,191230.27082131902,2659,1989,1468,3
-1366.4256149699443,-358.98518908817454,158.01834131424766,324386.09527364955,133960.65345757204,182805.21578378047,2761,1973,1484,3
-1343.6866649807278,-312.17316600019234,148.98563672457058,322536.24866911094,133099.35826960896,175548.53673184864,2773,1971,1478,3
-1320.2550092641995,-272.3024894396098,139.65668781331505,320585.1373163705,132578.39505608607,169429.07964296747,2868,1986,1475,3
-1296.0779255117563,-239.19641245941952,129.75792634945543,318618.11468420003,132379.56077837842,164393.51782490555,2807,1965,1483,3
-1271.280434129362,-212.22395480568957,119.20915214390443,316753.9381716365,132478.75423371978,160369.14947609542,2848,1980,1472,3
-1246.1960334343964,-190.59037892983184,108.21937361233472,315131.62511217035,132849.87324484528,157271.02142784052,2682,1984,1471,3
-1221.3289216922683,-173.5248398206629,97.23197450665928,313887.1216008079,133465.46461369097,155010.40402035415,2522,1978,1475,3
-1197.2434483533489,-160.33033739785654,86.75052116832177,313127.0117825913,134293.48763762516,153502.89136458957,2535,1978,1479,3
-1174.44566729875,-150.36650870018622,77.17548693052346,312911.85060670035,135294.06980935362,152673.87401216812,2565,1987,1474,3
-1153.3108350492903,-143.02281610368092,68.74176650335644,313257.2062124647,136420.33083188738,152459.18147045939,2545,1990,1470,0
-1134.05166610139,-137.71225934250992,61.5395779804282,314146.5339463398,137623.54646300373,152801.99541545467,2591,2025,1453,0
-1116.7140684513527,-133.884537917621,55.558523630137344,315543.76741826447,138858.8750566943,153649.30089249223,2698,2052,1450,0
-1101.2040626687995,-131.0463781142439,50.715239100337314,317399.55861884286,140088.50728336777,154950.20648218313,2740,2058,1453,0
-1087.342672218437,-128.78547218178744,46.86625017563889,319654.0295492014,141282.63298290694,156656.31597757371,2775,2060,1451,0
-1074.925157164207,-126.79541513192505,43.82664336114763,322239.9140571172,142419.68982680605,158723.10092125356,2762,2062,1450,0
-1063.7647429853996,-124.89278202820891,41.39692181687551,325085.9397789242,143486.37665852916,161110.9554169772,2728,2060,1452,0
-1053.7205356043812,-123.0120984577518,39.38900672938241,328119.8319070415,144477.12528763743,163785.0477076112,2693,2062,1450,0
-1044.7067278062498,-121.16989495309114,37.64799689785811,331271.7352698296,145392.65226358597,166714.06182787856,2637,2092,1456,0
-1036.6824434871594,-119.41809157339728,36.06370016822543,334477.8531368433,146237.77539751734,169868.57933824812,2607,2077,1452,0
-1029.6341539691377,-117.81619311290657,34.563735419579174,337683.4645731234,147018.65439549368,173219.73562159552,2538,2075,1452,0
-1023.5569289277947,-116.42151032508369,33.09270083043233,340845.1460335722,147739.6490908714,176738.28699197958,2448,2091,1455,0
-1018.4367759190055,-115.28253546944192,31.592727937904023,343931.61757411744,148401.06924027216,180394.05112145236,2324,2112,1455,0
-1014.2393193059852,-114.43096245412559,29.995194841285482,346922.70043428853,148999.1765532016,184155.8746912796,2165,2126,1462,0
-1010.9065631561109,-113.8736272306567,28.224107165959794,349807.0031203328,149528.1868043363,187992.15181833346,1996,2107,1454,0
-1008.3601928810091,-113.58749516274719,26.20782766602193,352579.4426350428,149982.66807006285,191871.4451448969,1859,2136,1454,0
-1006.5092990951134,-113.52145629625385,23.893573561344837,355239.06976201327,150359.0744846272,195762.99771948802,1623,2146,1455,0
-1005.2605181455546,-113.60562941586879,21.25809542144084,357787.04927860043,150656.30008507287,199637.37381554872,1459,2194,1631,0
-1004.5270734309887,-113.764168625002,18.309527489962054,360225.03564670327,150875.49008054225,203467.06137228612,1348,2216,1631,0
-1004.2327203246208,-113.92731547069648,15.079825186826874,362554.3822346994,151019.27869826677,207226.8052076794,1218,2221,1631,0
-1004.3109609382553,-114.04153347919538,11.612019268433118,364776.07789326366,151090.84677725425,210893.83382805658,1052,2286,1645,0
-1004.7027313399576,-114.07562375245892,7.949376478949198,366890.97318263754,151093.33046012738,214447.92734590836,929,2281,1641,0
-1005.3541152657318,-114.02027544801507,4.131104058180954,368900.07864438015,151029.77341116735,217871.27935290738,752,2259,1642,0
-1006.214003509779,-113.88236983651528,0.1929560377394953,370804.9485184378,150903.3658468466,221148.4164477497,623,2293,1639,0
-1007.2320722521036,-113.67856547666901,-3.8305738210134876,372607.99079329806,150717.65977001222,224266.2066856694,504,2324,1648,0
-1008.3580286042554,-113.43137669241854,-7.903778916651465,374312.553284424,150476.64019216658,227213.87593597308,371,2320,1645,0
-1009.5424287556912,-113.16695234854758,-11.987824196080286,375922.8777495508,150184.6752041149,229983.10872315752,233,2320,1647,0
-1010.7384903609463,-112.91278320560107,-16.0402660749552,377443.96791675384,149846.41528100776,232568.11376906835,217,2371,1652,0
-1011.9041197087167,-112.69485055284962,-20.016337557108617,378881.3702764858,149466.67889031736,234965.49040831812,152,2418,1662,0
-1013.0034137830132,-112.53454522076983,-23.871739759039922,380240.92728766263,149050.32695314477,237173.97164592223,81,2417,1671,0
-1014.0070704144683,-112.44665031396892,-27.56548990481366,381528.5159330958,148602.1773643754,239194.10619504668,30,2439,1670,0
-1014.8919015915799,-112.43926686596895,-31.061308813483297,382749.74488447665,148127.01800639086,241027.89688260906,44,2469,1682,0
-1015.6399114314909,-112.51486262696856,-34.32787780605505,383909.60598479654,147629.69447779589,242678.4707818259,1,2485,1684,0
-1016.2372517856779,-112.67141130858079,-37.33866891929862,385012.13484342105,147115.20733648565,244149.81536474166,0,2537,1692,0
-1016.6735681676228,-112.90392954474441,-40.07110079272378,386060.18282135535,146588.74428521568,245446.60770490306,0,2527,1699,0
-1016.9419532368812,-113.20686700923372,-42.50509293827879,387055.3201966566,146055.60825850102,246574.171277214,0,2569,1691,0
-1017.0390548914424,-113.57623934846835,-44.6220140507955,387997.7829987225,145521.0958114375,247538.48296937312,0,2591,1694,0
-1016.9645907429187,-114.01024647610528,-46.40475169167284,388886.4552153048,144990.37345782557,248346.1340465121,0,2645,1687,0
-1016.7200153843141,-114.50889912455112,-47.838157635707276,389718.9650414076,144468.35482576888,249004.24942906538,0,2635,1710,0
-1016.307184058689,-115.0737652317123,-48.908614084872994,390491.85439325566,143959.637914341,249520.38963800363,0,2653,1716,0
-1015.7282040373104,-115.70791651214061,-49.602550004259,391200.76218835404,143468.53745777163,249902.45681098712,0,2653,1724,0
-1014.9866741365518,-116.41570003573763,-49.9045666377105,391840.67202088656,142999.1400005051,250158.6270765325,0,2674,1729,0
-1014.0892809609682,-117.20232079314364,-49.79592500423902,392406.1972943078,142555.31237027474,250297.29077287347,0,2695,1745,0
-1013.0468405887214,-118.0735824333283,-49.25434933972987,392891.8631667865,142140.62141304318,250326.9636381142,0,2705,1732,1
-1011.8751054527128,-119.03629380678476,-48.25620812206856,393292.4199015592,141758.15339329434,250256.16014222943,0,2707,1737,1
-1010.5957088609345,-120.09950067624608,-46.781278028264275,393603.1425882536,141410.28716311386,250093.26111421152,0,2724,1756,1
-1009.2367617349693,-121.27627325691617,-44.819492942971415,393820.1560799841,141098.4776140147,249846.36448359033,0,2743,1766,1
-1007.8322133016738,-122.58434725961094,-42.37693721398549,393940.9107734036,140823.1672160664,249523.05175897904,0,2772,1781,1
-1006.4193807403758,-124.04288454251315,-39.475435193577994,393964.64972367603,140583.9724695001,249130.11984793213,0,2761,1791,1
-1005.0363811380217,-125.66694301803118,-36.144597878862925,393892.60751378135,140380.10461705053,248673.40642695274,0,2785,1786,1
-1003.7217205016799,-127.46421740002155,-32.41282909614283,393727.9244052497,140210.79342725148,248157.73763978932,0,2751,1791,1
-1002.5145590957321,-129.4340746898265,-28.302265956126384,393475.2790627299,140075.4506416242,247586.9708407453,0,2779,1783,1
-1001.4535430083749,-131.56680781194737,-23.82719286683948,393140.2689792401,139973.52335184897,246964.09360564157,0,2793,1791,1
-1000.5754253237,-133.84357617326276,-18.99458579411199,392728.82184026326,139904.24101716455,246291.32759605843,0,2756,1809,1
-999.9156776872168,-136.23793218602083,-13.806422192330135,392246.81895997043,139866.39866910898,245570.2132380439,0,2726,1833,1
-999.5112583628484,-138.7183218071423,-8.263567440469505,391699.82903434604,139858.17764318417,244801.67049992966,0,2687,1851,1
-999.40366804082,-141.25011865374432,-2.370152565627191,391092.9439382016,139877.0301398166,243986.0300108996,0,2698,1853,1
-999.6406518921126,-143.79670290269826,3.862963075320066,390430.8227175041,139919.66155192564,243122.976004485,0,2744,1859,1
-1000.2764049240002,-146.31991357275797,10.415551699962556,389717.91972227744,139982.08229707854,242211.35630841897,0,2755,1862,1
-1001.3708192704305,-148.77998908377646,17.2559076769001,388958.7859606615,140059.689076413,241248.96488108582,0,2733,1884,1
-1002.9883241594617,-151.1356736425117,24.340330936466597,388158.39773291076,140147.40287304047,240232.3746775946,0,2684,1917,1
-1005.1968011863606,-153.34518071699003,31.61465184587129,387322.5017089801,140239.90917421546,239156.7770504439,0,2671,1916,1
-1008.066775406038,-155.36735296402884,39.01665543102353,386457.90970849,140331.94103542727,238015.87108824612,0,2565,1966,1
-1011.6705866563103,-157.1620769321322,46.47876030670107,385572.6751309222,140418.5404962827,236801.8547796444,4,2562,1992,1
-1016.0812851215204,-158.69005502284824,53.931166165218634,384676.1563856379,140495.31256798684,235505.4612517719,0,2487,2056,1
-1021.3713294714211,-159.9125457594477,61.3058989711663,383779.0134096321,140558.62269145862,234116.04150957597,0,2480,2077,1
-1027.6110185180082,-160.7913887180105,68.54196919081294,382893.15609960945,140605.66736545664,232621.74390021883,0,2480,2087,1
-1034.8666544251416,-161.28917515539325,75.58972928056657,382031.6350978309,140634.43933223645,231009.77242970557,0,2374,2153,1
-1043.198449384566,-161.36943861587096,82.41214040186557,381208.4304630685,140643.58957162008,229266.689466726,0,2291,2191,1
-1052.6577467718673,-160.99726174301256,88.98352113131132,380438.12070098263,140632.17109916985,227378.75429676689,0,2288,2217,1
-1063.2837985429067,-160.14053462835025,95.28758014295634,379735.5653043835,140599.37241231912,225332.29633894944,11,2291,2249,1
-1075.1019222896125,-158.771483807215,101.31552842992467,379115.667985059,140544.37198542323,223114.11442909433,9,2189,2299,1
-1088.1244889695076,-156.86799667009612,107.06415427067283,378593.11506633693,140466.31095081347,220711.88142573426,0,2122,2341,1
-1102.3536246274557,-154.41435886261473,112.53378270435466,378182.1048821362,140364.30988493838,218114.53305370235,1,2093,2377,1
-1117.7839229728675,-151.40124868302485,117.72621413345021,377896.13466670626,140237.46591684906,215312.59248446373,6,2095,2422,1
-1134.4047262828335,-147.8252462040952,122.64230752024775,377747.79152651434,140084.80153806173,212298.40694991534,0,2040,2286,1
-1152.200810842644,-143.6883678891693,127.2793820863457,377748.56707622664,139905.19744239148,209066.38439477756,1,2018,2294,1
-1171.1504081425496,-138.99785507028986,131.62961569912005,377908.78183423285,139697.36843648885,205613.2425984454,1,1980,2335,1
-1191.2217969427734,-133.7660686179119,135.67990924929322,378237.5965621218,139459.91848804805,201938.18196082892,0,1880,2368,1
-1212.3703053059303,-128.01027406428565,139.41284386290607,378743.021693117,139191.47982649907,198043.04187589043,8,1918,2403,1
-1234.5370818381975,-121.75153808766314,142.80937624534022,379431.8453599139,138890.93355557576,193932.4223594288,8,1865,2422,1
-1257.6499939114221,-115.01226421888278,145.853650446521,380309.4326092829,138557.68232711722,189613.6185103617,6,1867,2442,1
-1281.624550169395,-107.81362193576587,148.53762698121744,381379.40253724036,138191.86192221017,185096.5069127807,0,1813,2471,1
-1306.3626671394359,-100.17400254938299,150.86330989948715,382643.20354289556,137794.39085054965,180393.57942368204,0,1824,2468,1
-1331.7499407736332,-92.10832347712895,152.8428410384414,384099.6051955415,137366.86189628683,175520.06973528175,0,1796,2484,1
-1357.6534924907721,-83.62823058726373,154.4965681150323,385744.1102076334,136911.2353701881,170494.00907951663,0,1783,2501,1
-1383.9211105986549,-74.74358363205755,155.8487629688291,387568.2797984235,136429.30776148973,165336.10615534097,0,1673,2519,1
-1410.3802832011843,-65.4650882421038,156.9220704328945,389559.05127789674,135922.1728375514,160069.6582940847,0,1642,2542,1
-1436.8360843066455,-55.808018538445346,157.73087065165308,391698.15917351487,135389.8744700926,154720.6163891705,1,1641,2532,1
-1463.0683117746335,-45.79729541834962,158.2730285982451,393961.7011681704,134831.2191289407,149317.60039279412,15,1626,2519,1
-1488.827932548309,-35.47339459124807,158.52246509839517,396319.8918994251,134243.74968723574,143891.94278088442,16,1618,2523,1
-1513.8332843410597,-24.898355475431746,158.42542890098474,398737.19275836245,133624.00800345783,138477.81803045995,21,1562,2521,1
-1537.7671451299852,-14.161546957572714,157.90035529425407,401172.93162174016,132968.12967164,133112.2009196191,18,1591,2464,1
-1560.274490128713,-3.383864145354301,156.84053294062576,403582.1075215421,132272.63340546034,127834.73208070551,15,1591,2430,1
-1580.961098139806,7.281738523190269,155.1212561509703,405916.2166489665,131535.40341646512,122687.56021325424,18,1586,2394,1
-1599.3945694811162,17.653899099382766,152.6128903648399,408124.27112373774,130756.97972836824,117714.94422854624,0,1564,2323,1
-1615.1086296740784,27.528628812428035,149.19650252870883,410153.7572516592,129941.87495141909,112962.85562665852,0,1663,2247,1
-1627.6135286908552,36.68684484619042,144.77862852102112,411951.2760738878,129099.53497004775,108478.83285625139,4,1699,2163,1
-1636.4143614940476,44.90545183858131,139.30399665328073,413463.0922417665,128244.8951365215,104311.85899552789,10,1974,1999,1
-1641.0312010649202,51.96844341274461,132.76156709524554,414635.7799658148,127398.47830616956,100512.28658877079,11,2191,2063,1
-1641.0185773942037,57.67199246603754,125.17818200418073,415417.66225771117,126585.81150969572,97131.97815711518,8,2378,2011,1
-1635.989436804574,61.82397756127556,116.6017705734075,415761.94007581944,125836.22462908912,94224.57097765768,7,2549,1933,1
-1625.6402740624715,64.24638301916227,107.08465430672543,415631.0587039994,125181.65008530849,91845.81351957917,17,2532,1904,1
-1609.769685875057,64.79546021407786,96.67718538795256,415002.15621536673,124655.82552501632,90053.67806586302,8,2379,1891,1
-1588.2892708679792,63.403675484573554,85.43520172656778,413874.08902332315,124293.666438189,88907.69310248407,9,2320,1833,1
-1561.223611333313,60.12242599141585,73.43713700711466,412273.9259614143,124130.51031813628,88467.40956534843,10,2271,1820,1
-1528.6902522649411,55.14226614318464,60.801695304199825,410259.7191036774,124200.60415295948,88790.0038207842,13,2202,1792,1
-1490.8633293155438,48.786401001154786,47.69878883373383,407919.169446805,124534.23184833149,89927.14732235321,3,2075,1620,1
-1447.945176041427,41.4838324875061,34.35245382884894,405365.8106453529,125154.30292467427,91922.31648488867,9,1960,1610,2
-1400.1650469082035,33.72138251168973,21.037997075733326,402732.6827844059,126073.5651661403,94809.46794801217,0,1948,1587,2
-1347.8007761534407,25.974359000616605,8.073378976374972,400162.48437228973,127292.58260215027,98612.54060085192,3,1938,1546,2
-1291.206961699366,18.64006608113561,-4.196456548302941,397796.4778747648,128798.74106975559,103344.98339655179,1,1938,1522,2
-1230.833546726609,12.000048635128989,-15.425116156591267,395764.376686492,130567.22851321232,109009.16702026578,0,2014,1456,2
-1167.2263940128003,6.210802745645995,-25.30038698567992,394174.74274173804,132564.26928135444,115595.87901013035,0,2012,1452,2
-1101.0142012085194,1.313963338478441,-33.57544048684853,393107.82377106947,134751.34829398675,123084.00125203043,0,2011,1451,2
-1032.888910877854,-2.735899664475288,-40.08046566317152,392613.59983004705,137089.53783678525,131440.6928318736,0,2012,1451,2
-963.582829581408,-6.027468286255166,-44.71849163898703,392714.016808124,139544.00648737486,140622.43602888563,0,2011,1454,2
-893.8492315162258,-8.645559504950059,-47.455302882612756,393406.7460610309,142087.43890369195,150576.48568821134,0,2010,1455,2
-824.4448327065882,-10.631721586700616,-48.30362958194819,394669.6163031767,144700.7298396052,161242.80353797274,0,2011,1454,2
-756.1038554116031,-11.952382532845673,-47.30041733063824,396465.9265336617,147371.25801495396,172557.17987935257,0,2011,1455,2
-689.511448770551,-12.48229644737935,-44.48666748658998,398749.2583944288,150090.2367433887,184454.46973987392,0,2010,1453,2
-625.2906893123622,-12.018103233679772,-39.90112801167556,401466.46833570197,152850.310105254,196870.90313584672,0,2009,1455,2
-564.0017441624693,-10.319684203780046,-33.588161370474815,404559.47531133285,155643.83652701884,209746.02413461046,0,2008,1457,2
-506.14703925271544,-7.156326432518255,-25.611399844239365,407966.3631265221,158462.06976743962,223023.80172230463,0,2011,1453,2
-452.17731850039826,-2.3415302251950796,-16.064542433550628,411622.03417339834,161295.43956458446,236652.2467950345,0,2009,1453,2
-402.4951790053551,4.242370070704938,-5.075530096323988,415459.04390105174,164134.7416781515,250582.38624990068,0,2007,1451,2
-357.45793989581443,12.630470904746735,7.195211664883196,419408.6430208457,166972.47200528358,264767.1459239149,0,2008,1455,2
-317.37970473069294,22.775545541111967,20.56077649779763,423402.0858129851,169803.7781048296,279160.26102656126,0,2010,1453,2
-282.5306396920578,34.55739070333545,34.816548123220734,427372.6841443072,172627.13646682227,293715.63543256983,0,2010,1451,2
-253.13587703042674,47.7933710180259,49.749421401998994,431258.1318314189,175444.6425941702,308386.8936588022,0,2012,1452,2
-229.37543184856634,62.249101497605906,65.14861415239204,435002.5314351963,178261.58407236653,323126.96277647576,0,2011,1455,2
-211.3840130191957,77.65254578470102,80.82109959291631,438558.349327569,181085.37400477595,337888.13702471985,0,2009,1452,2
-199.25160003996086,93.70832571915027,96.60684328717058,441887.8349799796,183924.2167810017,352622.16312220896,0,2010,1453,2
-193.0247970716574,110.10792129070175,112.38630704627076,444963.10298677813,186785.7369375034,367280.0289505202,0,2011,1454,2
-192.70733825534904,126.53757690153978,128.07880742700033,447765.0871533783,189675.61801582234,381812.16764048696,0,2011,1451,2
-198.259908307712,142.68471548233236,143.63478015477565,450282.14936302684,192596.47106381477,396168.92193607386,0,2011,1450,2
-209.60042892886602,158.24288681856535,159.02748418372306,452508.9385482163,195547.2420567457,410301.09129705897,0,2010,1453,2
-226.6050068366328,172.9172442936995,174.2486148972956,454445.6600450105,198523.13946865054,424161.136208357,0,2010,1450,2
-249.10936009596867,186.42995912191472,189.3080468452527,456097.60846349754,201515.76083659992,437704.3500392747,0,2010,1451,2
-276.91196738032664,198.5250589887264,204.23622182393368,457474.70519521507,204513.30150829523,450889.26418498973,0,2009,1451,2
-309.7791490525186,208.97407544252934,219.08782780332314,458590.83144644764,207500.96074156003,463677.816377108,0,2010,1453,2
-347.448990038888,217.58043905459496,233.94352203976277,459462.924528363,210461.36699142936,476035.16665898793,0,2009,1453,2
-389.6339800944224,224.17944445513973,248.90410393721115,460109.6424185056,213374.82048181744,487928.9553081974,0,2010,1451,2
-436.02498426780744,228.63493850675692,264.0744970775339,460549.41552510444,216219.42283685718,499328.6741820778,0,2010,1452,2
-486.29442258199794,230.83606054557632,279.54321018184504,460798.4581931595,218971.07341183565,510205.2346191808,0,2010,1453,2
-540.096957671403,230.6951485809955,295.36563722960983,460869.3626800789,221603.5253617941,520530.5651110377,0,2010,1451,2
-597.0701434231366,228.14537619968257,311.5544193122099,460770.13592787663,224088.9402348059,530277.4802343983,0,2009,1455,2
-656.8348809379786,223.1370146638405,328.0767235140959,460503.4462347133,226398.88691806042,539419.5033379671,0,2008,1452,2
-718.9962011811072,215.63154506258465,344.85721815345266,460065.9589365861,228505.67389408694,547930.4515760011,0,2009,1451,2
-783.1473337282905,205.59304275398975,361.78348457515585,459447.6362165998,230384.10040925167,555784.2718471842,0,2009,1452,2
-848.8746155581119,192.97927977481396,378.70954354040197,458631.2935287653,232013.0747139702,562955.0809869358,0,2009,1454,2
-915.761238062295,177.734936819896,395.45757346473397,457593.0304928587,233376.57231695,569417.2035190399,0,2008,1452,2
-983.3919151986587,159.78676052739414,411.822724596142,456303.77250086033,234464.1504570385,575145.4147230868,0,2009,1455,2
-1051.3552013333658,139.0424723470603,427.58275351688707,454731.4015840193,235271.11869302124,580115.1136106633,0,2006,1454,2
-1119.240856613835,115.396711320467,442.51187822127326,452843.06603181304,235798.1304984034,584302.0710742648,0,2005,1455,2
-1186.6368062837312,88.74338730825278,456.3976682504383,450607.73769992916,236050.19502197645,587682.0082336196,0,2008,1455,2
-1253.127522498016,58.98931176723213,469.05471098017586,447998.6214793161,236035.43136159529,590230.217584969,0,2011,1453,2
-1318.2935154555282,26.064428370583663,480.3309346243979,444995.02036759624,235763.6548835615,591921.2788360089,0,2011,1451,2
-1381.7132813228272,-10.07219445624112,490.1092776938151,441583.8835650316,235244.69935112793,592728.9942316144,0,2006,1457,3
-1442.9651458928793,-49.42881419788,498.3063170156616,437761.07160926674,234486.91029178735,592626.4989007066,0,2007,1457,3
-1501.628183724447,-91.977985326663,504.8663801489145,433532.1451104324,233496.23120833808,591586.4719012772,0,1992,1470,3
-1557.2859175788392,-137.6532327207816,509.7510268208257,428912.73388822173,232275.7724928106,589581.5443681154,0,1980,1475,3
-1609.5312144964387,-186.34479106371975,512.9280357500295,423928.7373781337,230825.84802733298,586584.9305054328,0,1978,1482,3
-1657.9703653782394,-237.89340747903017,514.3650202496696,418616.5783007379,229144.53058417054,582571.196546425,0,1978,1484,3
-1702.2296076522327,-292.07983523424855,514.0290858712054,413023.2322151568,227228.6609961934,577517.2009932131,0,1974,1485,3
-1741.9630233429273,-348.6082732289567,511.8909171894532,407205.6086035157,225075.23433133878,571403.3047542267,0,1967,1490,3
-1776.8578889300065,-407.08760201947246,507.9303952750989,401229.53217496135,222682.8053797172,564214.7903947271,0,1970,1480,3
-1806.6420620660338,-467.01752351299456,502.1426537670051,395168.2739000458,220052.57890046536,555943.329823385,0,1966,1486,3
-1831.0994019573218,-527.7835585462143,494.5458222317181,389100.1651924823,217189.2764176139,546588.4263256233,0,1964,1487,3
-1850.0876305734355,-588.6601398671992,485.1899884648481,383106.0348744356,214101.85185401683,536158.8478079885,0,1970,1484,3
-1863.5510080991926,-648.8222129446049,474.1654738828366,377267.08334196365,210803.74309644508,524673.9085237233,0,1956,1493,3
-1871.5273831889403,-707.3646955339734,461.60817469723844,371662.6558213669,207312.37032069653,512164.4053962334,0,1952,1496,3
-1874.149468558799,-763.3193142856904,447.69864226933475,366368.1707314933,203648.1001077845,498673.4333863624,0,1952,1504,3
-1871.6405612586568,-815.661004803608,432.6533608606341,361453.3719140055,199832.8940550385,484257.0287198445,0,1948,1500,3
-1864.3093384645524,-863.3099053826029,416.71103655211556,356980.0350375433,195888.7976971366,468984.1728936443,0,1936,1511,3
-1852.5478583823433,-905.142845683305,400.1183505906475,352999.22451737337,191837.10439622976,452936.51489610615,0,1928,1521,3
-1836.8311741970824,-940.024400144038,383.119665880653,349548.2864398594,187699.00202206091,436207.89596158784,0,1930,1518,3
-1817.7087846664056,-966.8493628837239,365.9542227032929,346647.07348392333,183497.48319208025,418903.0826394286,0,1930,1521,3
-1795.772063568884,-984.5907111694265,348.85634039782616,344294.5035764068,179259.65196694052,401136.6740859449,0,1928,1519,3
-1771.6008470901047,-992.3689790569798,332.05216118252116,342467.2437124174,175018.65430393926,383033.33192873135,0,1941,1507,3
-1745.7213217875508,-989.5413527528755,315.75972722553735,341120.6331597015,170814.79657459137,364728.85222441534,0,1956,1493,3
-1718.5951075814226,-975.7769303314803,300.19512709384105,340190.871391277,166695.39655652424,346371.39087413205,0,1947,1502,3
-1690.628299317596,-951.0996134256691,285.5664573774809,339598.18607794086,162712.24103809998,328121.0346038087,0,1950,1500,3
-1662.1830170085532,-915.9086440009611,272.0491145191883,339251.4328371526,158916.22291473683,310145.7736203262,0,1960,1494,3
-1633.582821993115,-870.9828166035118,259.760447887977,339053.44421686174,155351.64932028236,292615.57391656627,0,1972,1483,3
-1605.1098190504317,-817.4562180823325,248.7418519955667,338906.4306126246,152053.02602905425,275696.0952883395,0,1966,1496,3
-1576.992933688739,-756.7608190197711,238.94464665687235,338717.7942355839,149044.31764406757,259541.23377137556,0,1969,1486,3
-1549.390920031329,-690.5617185583118,230.22416896375526,338405.3091459212,146339.72698709316,244286.5948571368,0,1961,1487,3
-1522.3749117040036,-620.7042080876294,222.34821955315948,337900.4088993317,143945.7275270424,230046.41487599516,41,1978,1477,3
-1495.9126121817712,-549.1625969479283,215.0180993423172,337150.1721005794,141863.97240011606,216912.73653972612,319,1971,1483,3
-1469.861862345755,-477.9876659589271,207.8950951902833,336118.60156488226,140094.16413937105,204955.7222937857,1018,1976,1481,3
-1443.9879976806244,-409.2359319652809,200.6302399371173,334787.4383211873,138636.28932956085,194224.76735170398,2123,1978,1476,3
-1418.0104188189657,-344.84741228937446,192.89721537442082,333157.0388766394,137492.1139782873,184749.40299621734,2844,1989,1469,3
-1391.6622755263572,-286.48359064928366,184.41236435033957,331247.6147644973,136665.16028713674,176539.54135455514,3047,1990,1467,3
-1364.7469584575163,-235.35163981532253,174.9377430613112,329102.0236085386,136157.86496057053,169584.7014943773,3091,1984,1472,3
-1337.190713486085,-192.04736303115337,164.30916308227287,326791.88291204616,135966.5310082745,163851.98661215263,2997,1982,1476,3
-1309.0894337538564,-156.5099894389507,152.5125919194491,324423.89557619655,136077.57407440423,159284.81696576477,2947,1981,1475,3
-1280.736748176719,-128.166682233001,139.75501469551327,322136.0937704018,136467.65158590587,155805.67285648902,2794,1987,1467,3
-1252.607772796255,-106.20129278172458,126.46016476950223,320077.711532087,137105.92590360172,153323.1195223607,2703,1972,1478,3
-1225.2889587808847,-89.77225396084879,113.1841796309188,318382.09452748,137955.09732556783,151739.70814083595,2561,1981,1471,3
-1199.374519227677,-78.08561071807826,100.49613549297256,317147.05835647555,138970.79434552573,150958.44528731835,2728,1980,1472,3
-1175.3545956188027,-70.37802099252053,88.86946040125005,316428.1093340575,140102.35189123056,150887.6080892035,2666,1990,1468,0
-1153.5315961847502,-65.89200368988595,78.62591100041831,316243.2719607178,141297.17791604204,151442.87249824428,2807,2013,1452,0
-1133.9941427127428,-63.88117825343709,69.93788122512626,316582.94879643474,142506.4380271296,152546.84648574423,2805,2006,1454,0
-1116.6468770051736,-63.65003519463214,62.851033906227336,317417.59555652394,143688.85007824094,154128.32733608998,2851,2008,1453,0
-1101.279718657031,-64.60959731238479,57.30481885115284,318702.731199298,144812.4511715928,156122.59408124158,2863,2010,1455,0
-1087.6439487219345,-66.32061287919983,53.15264594194634,320382.93316947814,145855.26313274412,158472.20537633364,2889,2016,1457,0
-1075.5056771008947,-68.50457561259009,50.19017149852189,322395.71573909966,146805.28262010362,161127.40384230707,2898,2029,1459,0
-1064.6743046990123,-71.01915684423044,48.199745319136674,324676.5347419504,147660.16044404326,164045.65182198535,2875,2018,1458,0
-1055.011020894328,-73.81186101536998,46.9965856474124,327164.08534680645,148426.35478124296,167190.3394859618,2844,2034,1455,0
-1046.4208301794024,-76.86991920315982,46.44950719229076,329804.41589744866,149116.477357574,170528.9210266313,2840,2032,1453,0
-1038.8360772803467,-80.177535428779,46.46848826642005,332553.80795101327,149744.18235962294,174030.8630065337,2815,2064,1451,0
-1032.2017208258294,-83.69238105696088,46.97420744160159,335379.8876510776,150318.74193164063,177666.06170149986,2802,2068,1452,0
-1026.4673115789944,-87.34574763665282,47.86899735834678,338260.1218924354,150842.27652079743,181404.24946071184,2755,2090,1457,0
-1021.5818055402594,-91.05386341791709,49.02041425523677,341178.33076056134,151310.76478226995,185215.35371563156,2647,2085,1454,0
-1017.488104022519,-94.72661143373334,50.263015049049315,344121.065196303,151718.0031602346,189070.29448747888,2538,2101,1455,0
-1014.1203042159426,-98.27149740079378,51.42111455794225,347075.22350965894,152059.78060676035,192941.56560006394,2416,2078,1451,0
-1011.4067518652331,-101.59729076605345,52.34358632175197,350026.8576143328,152335.66507276916,196803.44435293213,2336,2074,1452,0
-1009.2761788226386,-104.61825527581075,52.92895965241122,352960.59654096095,152548.34531760705,200632.0881038827,2169,2084,1450,0
-1007.6611300436007,-107.2577029669232,53.12817813379287,355859.4848356364,152701.98355599903,204405.52749068383,1978,2114,1453,0
-1006.4981862029815,-109.4531654190951,52.930141603102534,358705.4251979244,152800.652518875,208103.57683541143,1783,2112,1454,0
-1005.7282361033303,-111.16413525759206,52.3404322788572,361480.2610457324,152847.22751635796,211707.84496754844,1607,2121,1454,0
-1005.2971872770263,-112.37746390114026,51.36510429975599,364166.8795714586,152842.9456487459,215201.72852145619,1334,2149,1454,0
-1005.1554941070345,-113.10541677247205,50.00735544623598,366749.9161797517,152787.77755944044,218570.30167169115,1221,2142,1454,0
-1005.2564347790266,-113.3770851400939,48.27463021338965,369216.3173870541,152681.35257998333,221800.29351193967,1085,2141,1457,0
-1005.5548748343172,-113.22898978259089,46.18821407174192,371555.77313823113,152523.80977472628,224880.11341067834,917,2117,1455,0
-1006.0076787786597,-112.69979780726482,43.78828791795125,373760.80270083545,152316.08146801655,227799.8112219401,792,2150,1455,0
-1006.5750698392618,-111.82870358262538,41.13236257051575,375826.57343413716,152059.66681303902,230551.0746410758,599,2168,1460,0
-1007.2213672527996,-110.65502917210183,38.28974896058937,377750.55364342756,151756.29514814034,233127.2234258691,589,2184,1464,0
-1007.9143062826328,-109.21797831319267,35.33518493893685,379532.01814277517,151407.78063394953,235523.1197844402,514,2243,1631,0
-1008.6237519237422,-107.55640167186473,32.34327795812933,381171.49448753125,151016.11257046156,237735.09828857385,376,2262,1633,0
-1009.3211922445976,-105.70873903594831,29.38499324302781,382670.25247792643,150583.665717071,239760.90497427134,341,2236,1628,0
-1009.9806470820512,-103.71314351936213,26.526011196302136,384029.893102438,150113.3893584374,241599.58458485678,306,2253,1637,0
-1010.5807035767281,-101.60768581845845,23.825760924629904,385252.0732271295,149608.88181270368,243251.386467519,233,2283,1634,0
-1011.1064254818573,-99.43069726319968,21.33698204664017,386338.38119333296,149074.34271398134,244717.6811181291,169,2294,1634,0
-1011.5497081777255,-97.22125685913701,19.105735163016572,387290.3801179497,148514.42760561223,246000.83675233056,112,2312,1634,0
-1011.9080825530497,-95.01977389538318,17.171568555879308,388109.81760100817,147934.0419134559,247104.09919849347,121,2357,1641,0
-1012.1832949682316,-92.86847026217814,15.568005269470813,388798.86158505635,147338.1733679684,248031.4872424307,64,2383,1635,0
-1012.3805877108473,-90.81104423952684,14.3231412380744,389360.2265668078,146731.78809494365,248787.70041042956,34,2396,1638,0
-1012.5083583491894,-88.89098464115078,13.459758171704681,389797.21805102006,146119.69864494223,249378.08076427373,16,2402,1642,0
-1012.5774873661844,-87.14931598978374,12.994985331531018,390113.73143554345,145506.40968582238,249808.60028835875,0,2431,1641,0
-1012.6001315362142,-85.6227429290005,12.940241657494484,390314.1945389274,144896.01812475195,250085.79775664976,0,2457,1640,0
-1012.5885163387907,-84.34211834602188,13.301816044587884,390403.4585650538,144292.184269753,250216.66944314376,7,2447,1640,1
-1012.5545951143181,-83.33138815608336,14.0816816382619,390386.6576531719,143698.17126869626,250208.56077604694,0,2474,1646,1
-1012.5107865778909,-82.60763545972554,15.2781143184382,390269.0587210329,143116.90052284344,250069.04546697534,0,2453,1672,1
-1012.4711454574003,-82.18197796622285,16.885940847274217,390055.9220845573,142550.94485709743,249805.76031264916,0,2456,1675,1
-1012.4521468401746,-82.0606187839802,18.896524122466264,389752.4127329623,142002.47801943976,249426.23414632288,0,2460,1676,1
-1012.4726527374202,-82.24578033631695,21.297981978920006,389363.5831375726,141473.2377973621,248937.75691362633,0,2478,1676,1
-1012.5535526742586,-82.73639948748009,24.07576185184818,388894.3903974412,140964.5069618256,248347.28635044824,0,2511,1696,1
-1012.7180783573327,-83.52861010316549,27.213346199384976,388349.681508097,140477.09925845475,247661.3670424714,0,2528,1707,1
