AccX (g),AccY (g),AccZ (g),GyroX (deg/s),GyroY (deg/s),GyroZ (deg/s),Heel ADC0,MidFoot ADC1,Toe ADC2,LABEL
-994.433467617021,76.09223295069563,40.70821039658452,163023.1064098237,309078.20026705053,275813.89423463814,32,2031,1429,4
-998.1860044167519,69.89706975673988,38.88874051957328,165518.89662337236,307276.01480927935,271883.1104842788,31,2031,1428,4
-1002.1242626077067,63.63001880374694,37.23525809522837,167962.41672946504,305520.2560503228,267974.8433226722,31,2031,1427,4
-1006.2161725843587,57.39235475791202,35.78869106220067,170332.49619684173,303829.9802338772,264116.51956093416,32,2030,1429,4
-1010.4491806342062,51.25965767612162,34.58968060873589,172607.51004424825,302223.52483560453,260334.32283052837,32,2031,1430,4
-1014.8304447934395,45.27968706263041,33.67641000622103,174766.04907610363,300717.871199401,256652.0481281794,32,2032,1428,4
-1019.3825002080416,39.47730495951649,33.082286968140295,176788.3060127786,299327.7837746973,253089.38273924612,32,2031,1430,4
-1024.137472029293,33.862421098916606,32.83475679259068,178657.51145917637,298065.08532815793,249660.4099553775,31,2031,1428,4
-1029.1324421760694,28.437647257247598,32.95578814228101,180360.76409707393,296938.4040535713,246373.02871782516,31,2031,1430,4
-1034.4062447140368,23.204868013427486,33.46306163971776,181889.31693310884,295953.27280113153,243229.0123930464,32,2031,1430,4
-1039.9971065946274,18.170432125522122,34.37062480544603,183238.4796503243,295112.39475857955,240224.3805391489,32,2031,1430,4
-1045.94101858923,13.348936791387606,35.688996094663665,184407.1325213767,294416.0575159083,237350.1067517543,32,2031,1430,4
-1052.2706811437174,8.766111748659881,37.425625354122545,185396.95412195884,293862.6693873059,234593.12902743742,32,2032,1430,4
-1059.0147096472556,4.460679292072463,39.585440649319594,186211.5689444495,293449.2858449286,231937.51901606025,32,2032,1430,4
-1066.1974402680808,0.4845151285107935,42.170489141366104,186855.74622811395,293172.04629251274,229365.7956184582,32,2032,1434,4
-1073.8405752742474,-3.0999290701179785,45.1800231220453,187334.73593166505,293026.5503582087,226860.41511736173,32,2032,1432,4
-1081.9663277658112,-6.224604179891989,48.61244982188875,187653.90229602272,293008.0889077327,224405.08637961003,31,2030,1429,4
-1090.599932239248,-8.821261327605443,52.46747151979666,187818.66944134928,293111.5289477915,221985.40167519703,32,2030,1429,4
-1099.770793038574,-10.826010979793047,56.74656860738413,187834.62766213296,293330.8360639739,219588.75945244543,32,2031,1428,4
-1109.5132022817618,-12.182120431780602,61.4496167019798,187707.7881221838,293658.47173732024,217204.0067980726,32,2031,1429,4
-1119.8672902563262,-12.840059028485218,66.56461230504307,187445.04425852443,294084.8283752855,214821.10506721697,32,2032,1428,4
-1130.878647900626,-12.754656002953396,72.05408256413706,187054.79689564486,294597.68650277884,212430.84290282713,31,2032,1429,4
-1142.5937479156246,-11.88120253042038,77.84889307107036,186547.79669601438,295181.95423097716,210024.51208855704,31,2033,1433,4
-1155.0522262226132,-10.175153512571198,83.85528589738023,185938.18842882887,295820.2608137698,207593.44912275812,32,2032,1431,4
-1168.2805127996908,-7.5963490424969295,89.96845484322748,185244.1636697691,296494.44145148405,205128.63270809685,32,2031,1429,4
-1182.2885979984474,-4.1113520834993444,96.08313132487032,184487.50407973304,297187.4010208669,202620.5957452828,31,2032,1429,4
-1197.0689249722345,0.30865966387900523,102.10130931532903,183692.28715477232,297884.90847794095,200059.5254947794,31,2031,1429,4
-1212.596656501312,5.6895539240643735,107.93986208526648,182883.79477868264,298576.71641126915,197435.37267183303,31,2031,1428,4
-1228.831518615692,12.052571399183611,113.53612975058579,182087.99277801067,299256.4968208063,194737.87303387202,31,2032,1430,4
-1245.720878066373,19.411002160810302,118.85101288814357,181331.19206265535,299920.83205327665,191956.38474468197,32,2031,1429,4
-1263.201558501452,27.76781722654583,123.8698664449173,180639.69579263055,300567.9425571091,189079.72847723495,32,2032,1429,4
-1281.1983715444135,37.11583243951566,128.59857829294626,180039.35358339816,301196.4912402161,186096.32133098642,31,2030,1428,4
-1299.6199253468483,47.44002915013364,133.0544477528803,179554.92017184253,301804.3978288968,182994.65180500693,31,2030,1429,4
-1318.353213169171,58.71948938775311,137.2560138904357,179209.41914661243,302387.81423591345,179764.00066309646,31,2032,1428,4
-1337.2582471714234,70.92691364977917,141.21386585179332,179023.66885734312,302940.512975049,176395.2790169451,32,2031,1429,4
-1356.1633914016886,84.02677005630991,144.9211470623919,179015.84801376908,303453.6536872636,172881.8786542381,31,2032,1428,4
-1374.861411079701,97.97391498743241,148.34546562289074,179201.0929474066,303915.8647172862,169220.54041673656,32,2032,1428,4
-1393.106663596954,112.7131615201505,151.42608219089263,179591.161695926,304313.79670493054,165412.41014987158,32,2031,1430,4
-1410.614466589756,128.17948408366354,154.0771590560701,180194.06014733302,304633.2322038942,161464.41344294403,32,2032,1429,4
-1427.0649850115005,144.297519006382,156.1947001168936,181013.58665279724,304860.3770263662,157390.71708521797,31,2031,1433,4
-1442.116610935646,160.97914329733806,157.665445654868,182048.6758205108,304982.9485352851,153213.78442826282,31,2032,1431,4
-1455.4274305524325,178.12007179344891,158.3766454640608,183292.35613525246,304990.9694082702,148964.6911599661,32,2030,1429,4
-1466.6702569851147,195.59676371419008,158.2230787938315,184730.62550320782,304877.1008050512,144682.75367503992,32,2032,1430,4
-1475.5307914577565,213.2633266081073,157.10866702731806,186341.96229297502,304636.4206372958,140414.52010764505,32,2032,1430,4
-1481.6969619742972,230.94800270133302,154.94500409083827,188097.78369093421,304265.86901335075,136212.27316170032,32,2031,1430,4
-1484.8532300399556,248.449844931751,151.65135026673477,189963.43702719925,303763.75039310596,132132.8677042142,33,2031,1431,4
-1484.6852476707973,265.5359277247923,147.15968277786402,191899.30029983955,303129.6353164449,128237.38802302064,31,2031,1429,4
-1480.8927228623463,281.93783727596826,141.4239764920153,193861.90562423965,302364.7460848126,124591.14637843843,31,2032,1428,4
-1473.2056998522683,297.34735773442287,134.42870805422612,195804.88709901346,301472.64348122815,121263.6845853495,31,2031,1429,4
-1461.4042765933586,311.41868059192973,126.19328571123333,197679.9892673792,300460.04010385857,118328.54290054718,31,2031,1433,4
-1445.3441445536835,323.78629309267006,116.77181863387416,199438.78946201754,299337.665551595,115862.36384547013,32,2032,1430,4
-1424.9808195741773,334.0950969378995,106.24958711794588,201035.07269655715,298121.0008534086,113943.39856424899,32,2031,1429,4
-1400.3821901030265,342.03354150852255,94.74075416152263,202427.98555773695,296830.729223455,112649.33514736372,32,2030,1428,4
-1371.7275970821045,347.3642214177835,82.39135677383028,203586.26373055208,295492.9790711093,112054.14671889352,32,2030,1428,4
-1339.2972062842832,349.9433937637267,69.38743175537084,204492.12731835764,294139.43473227485,112224.8585741459,31,2031,1428,4
-1303.4518500234608,349.72647845664085,55.964441781555955,205143.411522282,292807.07927805604,113219.09835308936,31,2031,1429,4
-1264.6038828174692,346.76872879148345,42.41204370853532,205554.37599552906,291537.27259058674,115083.05060345943,32,2031,1430,4
-1223.191052254587,341.2274273617355,29.0704800120771,205755.85990106923,290374.08738914476,117849.7563781847,31,2032,1464,4
-1179.6616934253186,333.3631051912116,16.31855847678475,205794.4843296138,289361.0649362358,121538.14511926647,32,2032,1429,4
-1134.4645145986765,323.53637664323816,4.555785858064432,205730.43405436623,288535.6804879535,126152.82150751723,31,2032,1428,4
-1088.0393984849375,312.2005756138059,-5.8152655136631575,205634.02320596558,287923.21329932526,131684.44045576418,32,2031,1464,4
-1040.8104493084443,299.8874390779403,-14.404594412799833,205580.72047150775,287531.6277567011,138110.3412281716,32,2031,1430,4
-993.1790502318588,287.1757822067331,-20.853729704568345,205643.63476779134,287347.4836362904,145395.6655193871,32,2032,1429,4
-945.5189696268983,274.6419701348608,-24.858160081124176,205884.82010925247,287333.96843860636,153495.52636384367,32,2031,1428,4
-898.1795487739422,262.8091366145579,-26.1881146250176,206348.48662452135,287432.0297174526,162357.59247499172,32,2030,1428,4
-851.4990191824421,252.10491142662266,-24.71070242432252,207056.9451347674,287564.3560411743,171924.68352161715,32,2030,1431,4
-805.8241917474353,242.82298392411695,-20.419964352684147,208008.32886015472,287641.6441017965,182137.89674278468,30,2031,1429,4
-761.5275004134202,235.09480100921732,-13.464714624831295,209176.37473156888,287569.2985404337,192939.37869514013,31,2031,1429,4
-719.0114845078707,228.88562400373726,-4.1535136910150285,210514.05673913995,287253.9058599325,204273.81706805882,32,2031,1465,4
-678.6991434902267,224.0159742831622,7.065843702762433,211961.33166389514,286610.81223005534,216089.21349422596,32,2031,1428,4
-641.0190216976911,220.19738806565584,19.636324326010616,213453.71679452833,285571.6968035618,228336.83539485987,31,2031,1429,4
-606.3898070867754,217.07817745879416,32.927145699118334,214929.26338096883,284090.30211921054,240969.86750238185,30,2031,1427,4
-575.2020378094936,214.300071281792,46.282946859068524,216334.579061218,282146.73070059065,253941.2639964248,32,2032,1429,4
-547.7997741253868,211.5493384474786,59.07955470262158,217629.4119339643,279750.22886183305,267201.471160842,32,2030,1430,4
-524.4655141927631,208.5843252665075,70.77962597170023,218788.41833518725,276939.24578843435,280696.8317293509,31,2032,1432,4
-505.41000862993786,205.24256341054345,80.99082283376555,219800.5354307579,273778.48465080454,294369.44577648543,31,2031,1429,4
-490.77352779369517,201.43665650455267,89.50937458853214,220666.99125432828,270353.90528320003,308158.0516398986,32,2030,1428,4
-480.6411604238271,197.14116273249354,96.3243382160416,221398.1632549788,266765.32799627504,321999.56693216757,31,2029,1428,4
-475.0643339004119,192.37148424771098,101.58280176783163,222009.45732201924,263115.8481564495,335831.50172312005,31,2030,1427,4
-474.0761522543897,187.16175931220292,105.53975911361483,222517.60723134756,259501.30184839986,349593.99052594265,31,2030,1428,4
-477.6935510594454,181.54721828542938,108.51151950253066,222938.55078306748,256003.14965110202,363230.4601263176,32,2030,1428,4
-485.91023793618837,175.549097031658,110.8329369941172,223286.40027293973,252684.10663548435,376687.8213803034,32,2031,1428,4
-498.6885954878212,169.16319958069204,112.82146229743253,223572.86256442452,249586.01736799805,389916.45568236295,31,2031,1431,4
-515.9540831512764,162.35554727552483,114.75338442051662,223806.99334658557,246730.61577753277,402869.8370150405,31,2031,1431,4
-537.5912095041801,155.06324153811417,116.84731028274079,223995.17615817458,244122.5212590705,415504.2918872132,31,2031,1426,4
-563.4405157680054,147.1973746293921,119.2528435461692,224141.2320683029,241752.9742684139,427778.7009063975,31,2031,1428,4
-593.2981886670414,138.64816221311725,122.04788438529063,224246.63165903586,239603.82823332478,439653.8918306684,32,2032,1428,4
-626.9192070202712,129.29353446955295,125.24366164701058,224310.71601547758,237652.1011019068,451092.206538158,31,2031,1427,4
-664.0214414586172,119.0099901026641,128.79324976302942,224330.78992709276,235874.19519540813,462057.14394821663,31,2030,1427,4
-704.2892733120964,107.6844396494036,132.602777241689,224302.0903766462,234248.81838080392,472512.9402596782,31,2032,1431,4
-747.3780109626956,95.22659471803999,136.54730353546196,224217.75403458797,232758.98218892593,482424.525818211,31,2030,1432,4
-792.9175776963871,81.57847210752053,140.4879822956329,224068.79580041047,231393.27709567154,491757.6802200715,31,2031,1428,4
-840.5156783654415,66.71702830222974,144.28589051631286,223843.90127495656,230146.08908507501,500479.27446835686,32,2032,1432,4
-889.764151772281,50.6503381013586,147.81259198947296,223528.8982780595,229016.85068139923,508558.0471407968,32,2030,1428,4
-940.2466643403415,33.41099087082674,150.95617850798948,223106.1126970956,228008.90162328572,515965.4812577289,32,2031,1431,4
-991.5454754960061,15.047064854733193,153.6202319156688,222553.9073377217,227128.31050764114,522676.2760504195,32,2031,1432,4
-1043.2493713222846,-4.391722809066398,155.71694933774887,221846.55578349726,226382.67415075607,528668.7834226692,32,2031,1428,4
-1094.960338285889,-24.869124753083163,157.15984809588616,220954.6017279175,225780.2011106355,533925.3625085166,32,2032,1432,4
-1146.296520801535,-46.374562891878625,157.86155872295254,219845.94433335878,225329.33321917997,538432.3585470696,32,2031,1432,4
-1196.894104560519,-68.93393801309064,157.73620273051813,218487.58470979345,225038.66690499353,542179.8704236298,31,2032,1427,4
-1246.4080197912615,-92.61708261068597,156.70208962634587,216847.45931025298,224916.94054384468,545161.3010447103,32,2031,1429,4
-1294.511261169809,-117.53586645437922,154.68414885584812,214896.2129592761,224972.98697032774,547372.5136061101,32,2032,1430,4
-1340.8951876088306,-143.8318423747576,151.61813539975176,212609.35304136085,225215.43713421669,548810.6479770035,32,2031,1428,4
-1385.2693725500892,-171.65840311860723,147.45564737860653,209969.58768606657,225652.04645018445,549472.8882773237,32,2032,1430,3
-1427.3597187611308,-201.16177176438094,142.16671575397496,206968.60461771468,226288.84112129183,549355.5963710928,32,2032,1434,3
-1466.9080460818038,-232.46123666090037,135.7384634423216,203608.01875105433,227129.29430679738,548454.024804264,32,2032,1428,3
-1503.6740810557287,-265.63058301801016,128.17099171941322,199899.72802534208,228173.59195140863,546762.4848920114,32,2030,1430,3
-1537.4368244373702,-300.6841649185663,119.47338878865561,195865.98872430393,229418.1865069999,544274.7405307366,32,2032,1433,3
-1567.9952675700756,-337.5679648981064,109.66217693632142,191539.15198033652,230855.95868724197,540984.5330708468,32,2032,1428,3
-1595.1711555977122,-376.15417975040504,98.7622768175963,186960.84667588185,232477.03062312314,536886.2850510081,32,2032,1432,3
-1618.8131307383735,-416.23808629525473,86.80992296106209,182180.92682509476,234269.83123979054,531976.01231986,32,2032,1429,3
-1638.8013830162558,-457.5378708010947,73.85812727362355,177256.28895995568,236222.2232923227,526252.4277030933,32,2031,1429,3
-1655.0538712026218,-499.698309337172,59.98516414514383,172249.19287786272,238322.8277163983,519718.1911126884,32,2033,1433,3
-1667.531903269791,-542.2950255668072,45.303695322292,167225.48268779193,240562.20405752878,512381.1476398213,32,2031,1429,3
-1676.2431655504947,-584.8374068940661,29.96675495363317,162252.9743909033,242933.48823060276,504255.2124477879,31,2032,1428,3
-1681.2443773218995,-626.7725052450104,14.16939194337584,157399.53193743396,245432.58504237703,495360.70366766804,32,2031,1432,3
-1682.644024054597,-667.4898531180784,-1.85297896376398,152731.17901968412,248057.9433800379,485724.42515133205,32,2032,1429,3
-1680.6022518226762,-706.3294280346732,-17.83012123915735,148310.60032629725,250809.7930214253,475379.5686057887,32,2032,1428,3
-1675.3261191269305,-742.597500557536,-33.467161743837075,144195.54493851546,253688.94715279219,464365.2096375226,32,2032,1429,3
-1667.0624615791396,-775.5853781876808,-48.455551309319425,140437.3359030676,256695.51575968842,452725.9550766274,32,2031,1430,3
-1656.0915388318697,-804.5853949913629,-62.48239943470058,137079.8235437107,259827.8047778675,440512.155687438,32,2031,1428,3
-1642.7215588236786,-828.9067201614404,-75.24065791978859,134158.3696339029,263081.4354104188,427780.2559977947,32,2031,1428,3
-1627.2825874451628,-847.8890201943206,-86.43871997733264,131698.87213005387,266448.6704801174,414593.3041204754,32,2032,1429,3
-1610.1160431808362,-860.9116177534281,-95.80686225109197,129716.97990888674,269918.01585769316,401021.59667709505,31,2031,1429,3
-1591.557739207244,-867.4039907054164,-103.10357689772928,128217.18465803056,273474.1339283597,387142.95468337013,32,2032,1429,3
-1571.9216442062059,-866.8627500336514,-108.12318956685225,127192.00542835765,277097.9157521472,373042.9809851499,31,2031,1430,3
-1551.490222312281,-858.8815492473341,-110.70293996030334,126621.9533257209,280766.56350316765,358815.6052647701,31,2031,1430,3
-1530.5080596183577,-843.1960380153414,-110.72970214126067,126476.39494061338,284453.6098528505,344563.37828422926,32,2032,1432,3
-1509.1779543378739,-819.7277970656784,-108.14728907836955,126714.74209691022,288128.57718574913,330397.50331348093,31,2031,1431,3
-1487.6639302004248,-788.6144543813166,-102.96702896307157,127287.56761843638,291756.1277294009,316437.1842185302,32,2031,1434,3
-1466.1014640035924,-750.2304542626307,-95.28337794967885,128137.85320521441,295295.1717166913,302807.3760380396,32,2032,1432,3
-1444.6089604816184,-705.1999469392665,-85.28882203252256,129202.56874214642,298698.6631601218,289635.77306947194,32,2030,1429,3
-1423.2936568401851,-654.3930822840122,-73.28121866680235,130415.059679922,301914.9726430622,277049.17350364313,32,2031,1430,3
-1402.249949630253,-598.9018526414761,-59.66340224289373,131708.714090599,304891.15057686006,265167.88307395665,32,2030,1429,3
-1381.553508177904,-540.0058100695628,-44.9364756553149,133020.91750174036,307576.7352504225,254099.61910037373,31,2032,1429,3
-1361.253363899184,-479.1316983377023,-29.680985986131546,134296.2459403569,309927.086152528,243934.80444839728,32,2032,1429,3
-1341.3619601389435,-417.80141513671805,-14.521661958087186,135488.94024432384,311906.6427119942,234742.70092958116,32,2032,1429,3
-1321.8507839049064,-357.572288430094,-0.08713250564943797,136564.23414183964,313491.98972539225,226568.88012965315,31,2031,1429,3
-1302.6656742132145,-299.94606669722845,13.022691312608368,137498.47926308887,314675.36014447676,219434.8293252563,32,2031,1429,3
-1283.7619721619574,-246.212563035163,24.2572709944584,138279.6407208544,315470.1956939677,213338.56362515313,31,2030,1429,3
-1265.1345397136213,-197.28117094781166,33.13668164596818,138910.1881607076,315917.4405148628,208255.42966422244,33,2031,1430,3
-1246.8213408244146,-153.59867198791628,39.32398532416882,139413.63110173045,316088.9071684473,204139.5290902391,32,2032,1430,3
-1228.895030623194,-115.1928294657454,42.750893375236444,139840.1875313109,316084.0226533548,200926.42785321135,32,2031,1430,3
-1211.4623185728913,-81.80648581476467,43.68252855925318,140262.4687390235,316018.3154322443,198537.18192358137,32,2032,1428,3
-1194.6609290967558,-53.03619631020201,42.65667375765241,140761.70596529328,316007.95498535695,196882.75899970028,32,2031,1429,3
-1178.6390897200506,-28.420323521961926,40.36483567698277,141413.64432599852,316155.4543800099,195868.81784612362,32,2031,1428,3
-1163.523704394397,-7.486120976188298,37.53905294527892,142278.37836525723,316537.6727750355,195401.5960443005,32,2032,1428,3
-1149.395256629666,10.23238617560023,34.86543789390371,143394.72431081955,317198.1459786077,195393.4302952395,32,2030,1428,0
-1136.2788828180908,25.19946593745812,32.925977905968054,144779.49758013606,318145.20006188616,195765.68390343434,32,2030,1428,0
-1124.1487345673781,37.88382146276109,32.155094992662306,146430.33961909715,319353.4410509818,196449.3139299163,30,2031,1428,0
-1112.942170246762,48.74819946133467,32.81597095681485,148330.00217897867,320766.33682137687,197384.57674060244,31,2032,1432,0
-1102.581383421316,58.222258638498985,35.00870337014482,150450.77967145562,322300.9908163028,198520.8415986234,33,2031,1429,0
-1092.9935365043584,66.66963315548325,38.69952521167981,152758.44103003514,323856.74011777254,199816.62948560304,32,2031,1428,0
-1084.1181151868361,74.3652344024849,43.74689937185362,155214.5387846449,325325.31994845363,201239.39514964193,32,2030,1431,0
-1075.9019066917992,81.49211356807963,49.913260446518436,157777.0834777736,326600.4108986034,202764.60793775486,32,2030,1429,0
-1068.2920307374131,88.1517351964669,56.87276793959399,160401.5201582436,327587.3754258074,204374.13556388623,32,2031,1429,0
-1061.2339566297028,94.37667054417302,64.22625923227979,163042.95985337175,328211.90063725953,206054.4209971403,31,2031,1428,0
-1054.672951700504,100.1454332829834,71.52916014935725,165659.23430357556,328425.6197195488,207794.66086761223,33,2031,1432,0
-1048.5543807436784,105.40487087341711,78.33548795647432,168214.22180735331,328209.47607450053,209584.7834610391,31,2030,1428,0
-1042.8228413663894,110.09490612119455,84.246550928517,170680.22675599254,327574.92754030233,211413.6243764901,32,2032,1432,0
-1037.4245916617865,114.16715005158244,88.95284132882463,173038.45885855207,326561.30073193775,213268.02779595365,31,2031,1430,0
-1032.3153836292338,117.59734342708657,92.26979175639745,175278.13217427634,325228.97977075615,215132.95834651944,32,2031,1463,0
-1027.4697905114779,120.39150206702044,94.15871536684044,177395.05983335173,323651.02289077593,216992.18495235135,32,2031,1429,0
-1022.8857980074116,122.58365530064268,94.71706304796888,179389.87590765514,321904.82101059664,218829.26593130175,30,2031,1430,0
-1018.5814111811374,124.22826899284865,94.14089855478815,181265.73479021114,320063.36196005595,220628.71255802485,32,2032,1427,0
-1014.5854064560011,125.39303630243913,92.68148989404916,183026.02044948726,318188.10934763803,222376.84170120143,32,2031,1431,0
-1010.9267641500612,126.15282852153186,90.60809519205881,184672.81088572802,316325.947501368,224061.96595541554,32,2030,1428,0
-1007.6259493305475,126.58220837940945,88.17359991411898,186206.2076748483,314509.307175894,225674.1952459423,32,2031,1432,0
-1004.6907265774752,126.74740091734047,85.58739605221498,187624.33075458894,312757.6973119368,227205.18146620135,32,2031,1430,0
-1002.117294576632,126.70035752481996,83.00227958304072,188923.87252415254,311080.1120230484,228647.9423950707,32,2031,1428,0
-999.8938604700362,126.475274434396,80.51125298398547,190101.05875693608,309478.1765609461,229996.81449402368,32,2032,1428,0
-998.0034815856397,126.08787621723758,78.14963532349314,191152.58802696946,307949.2182118722,231247.44049881175,32,2031,1432,0
-996.4255743357293,125.53872883274788,75.90366464327263,192076.30026718834,306488.6523478342,232396.70349871516,32,2031,1429,0
-995.1370710304301,124.82000285177799,73.72618657798591,192871.74586454933,305091.9391935073,233442.64663794127,32,2030,1429,0
-994.1136037380965,123.92231238749383,71.55443698629772,193540.61867760806,303756.04379221116,234384.40271736222,32,2032,1432,0
-993.3306530699404,122.83919417489084,69.32603106085833,194086.80162483483,302480.0224896007,235222.14961248776,31,2032,1432,0
-992.7650819942878,121.56956301425218,66.99359904500118,194516.014957535,301264.85505422496,235957.14354753314,32,2032,1429,0
-992.3969928312866,120.11866680791123,64.53525561368896,194835.26134361912,300112.9220542325,236591.79007531938,30,2032,1427,0
-992.2108679692587,118.49746099618716,61.9569358913633,195052.19453960075,299027.2838482185,237129.66171987035,32,2030,1429,0
-992.195141650094,116.72065569566773,59.28786095826136,195174.44948367155,298010.7595928192,237575.44037151485,32,2030,1430,0
-992.3405007158051,114.80430358221504,56.57354989576555,195209.09190010288,297065.13554849615,237934.78953910878,32,2031,1428,0
-992.6380415157241,112.76356822050984,53.86874242678823,195162.31865475306,296190.8291110973,238214.16281988003,32,2031,1428,0
-993.0782892202798,110.6106294785434,51.22987508712399,195039.33006817327,295386.8870132027,238420.59363431478,31,2030,1429,0
-993.6513225264181,108.35305768794044,48.70822454854695,194844.30072802622,294651.1177725829,238561.53585954543,32,2031,1429,0
-994.3473765638228,105.99308251157323,46.345259675764744,194580.4933677932,293980.28852160147,238644.77510415125,32,2032,1428,0
-995.1571495943067,103.5276612635426,44.169656336353604,194250.54640589614,293370.34050619707,238678.37330634394,32,2031,1434,1
-996.071869112673,100.94870360225981,42.195712040565525,193856.86272613393,292816.6062123332,238670.60445681444,31,2030,1429,1
-997.0837083792101,98.24210109867235,40.423703321163046,193402.0701625181,292314.06149737805,238629.7683566387,31,2031,1428,1
-998.186287470617,95.38545641744182,38.84245050015625,192889.59636574218,291857.63011211494,238563.7509743409,31,2032,1433,1
-999.3742296437164,92.34803625786789,37.43303190530921,192324.2289347428,291442.501186875,238479.41419933064,31,2030,1429,1
-1000.6422831465715,89.09700923395715,36.17294000202128,191712.4922484896,291064.45104264596,238382.06440810833,31,2031,1429,1
-1001.9864596137417,85.60712309611245,35.043012453003634,191062.8995193906,290720.146038461,238275.24880117696,32,2032,1433,1
-1003.4078728051788,81.86559405021706,34.0367405630383,190386.1091134903,290407.2393818725,238160.84091118685,32,2030,1428,1
-1004.9170424390635,77.86906702457371,33.16509048921806,189694.6905017634,290123.99903541704,238038.8755239448,31,2031,1428,1
-1006.5361455911734,73.6179379645954,32.451777663892706,189002.2690485619,289868.5102886471,237906.83193466289,31,2032,1432,1
-1008.2967900501299,69.11580416381369,31.923115901300356,188322.43532409202,289637.9927896119,237758.94757166228,31,2031,1432,1
-1010.2331980176441,64.37606410001744,31.600630273312063,187667.9640178337,289428.69743607775,237586.24866416215,32,2031,1432,1
-1012.3751985622918,59.43004259851026,31.49865121456602,187050.32605067536,289236.2964473434,237377.27961284845,32,2031,1429,1
-1014.7449045879032,54.330372287359694,31.62467658592116,186479.13623525584,289056.5622698383,237119.34585876428,32,2032,1434,1
-1017.356680049043,49.14858005693535,31.981909543072323,185961.40918233988,288886.21236428147,236800.20592878942,32,2031,1433,1
-1020.2187058703533,43.96981273255961,32.57288595451489,185500.86606092236,288723.58683491655,236409.68407801836,32,2032,1429,1
-1023.3360074514968,38.88602594246899,33.401526205142375,185097.48491422326,288568.88657602086,235940.63843373198,32,2030,1430,1
-1026.714767645144,33.98685559146088,34.47268689316123,184747.26358073205,288424.08003415907,235389.29187104295,33,2031,1429,1
-1030.3660092739651,29.35021487806143,35.790684240669535,184442.27594953694,288292.7088696638,234755.06299648646,32,2030,1429,1
-1034.3075477025113,25.035436787508925,37.358609019784076,184171.25526130063,288179.65257393906,234039.8059882942,32,2030,1430,1
-1038.5649873619848,21.07941466451136,39.17884715201681,183920.70152507187,288090.80422575393,233246.4782282452,32,2032,1433,1
-1043.171838629447,17.496585362584153,41.25388153371624,183676.0886094448,288032.6856408931,232377.76026940846,31,2031,1429,1
-1048.1678526098992,14.283644023913771,43.586571247690316,183422.91195342064,288011.97148282675,231435.05654568408,32,2030,1427,1
-1053.595633758635,11.426965397697403,46.1798005002158,183147.69154700317,288034.8445062897,230417.79038222626,32,2032,1428,1
-1059.4970215788687,8.908916206029748,49.03544315909277,182838.79662965806,288106.3680634146,229323.0106055086,32,2032,1432,1
-1065.9105847820026,6.711788998456002,52.152334476052424,182486.84409309344,288230.1247317551,228145.43873208034,31,2031,1432,1
-1072.87031292863,4.820699589141865,55.523557719163065,182084.7684622429,288408.1227627544,226877.83881782336,32,2030,1430,1
-1080.4050690328215,3.225866568107312,59.13423773236092,181627.7708058596,288640.8822674015,225511.51676765902,32,2031,1430,1
-1088.5388762321104,1.9239813081406494,62.960740094590804,181113.22884829593,288927.680243761,224036.8708802919,32,2031,1430,1
-1097.292219733428,0.9187909022683488,66.9713594748511,180540.61688538795,289266.9178147218,222443.98124066144,32,2031,1428,1
-1106.683515344745,0.2211490383174775,71.12815409992511,179911.5094777256,289656.45222200826,220723.15859852041,32,2031,1429,1
-1116.729936804297,-0.15089034005152374,75.38975889357894,179229.6695957884,290093.7637044671,218865.36575970298,31,2030,1434,1
-1127.4478254596618,-0.17157746138526242,79.71456929340371,178501.1332765949,290575.9808886785,216862.5359308485,32,2032,1433,1
-1138.8527321237566,0.19340006148794317,84.06177404935116,177734.24630713635,291099.7810661735,214707.85531660047,31,2032,1427,1
-1150.9583245221866,0.9887520591759884,88.38744784203125,176939.69625790368,291661.0685496111,212396.00089006362,32,2030,1429,1
-1163.7727112806942,2.2727961359332536,92.63673032201052,176130.62605730322,292254.38348546816,209923.29339015693,31,2031,1429,1
-1177.292728801485,4.119235618839785,96.73868840862974,175322.87683418771,292872.3811662441,207287.79944197205,32,2031,1433,1
-1191.4996973976592,6.613114769940375,100.61043396698317,174535.3139192842,293505.903019984,204489.40150299488,32,2030,1429,1
-1206.3580267182958,9.842247870905535,104.1674191304394,173789.95753369085,294144.6721022782,201529.8348905107,32,2031,1463,1
-1221.815322489069,13.889781132002089,107.3314784822221,173111.3676098006,294778.38666957954,198412.65197684203,31,2031,1428,1
-1237.8031587752546,18.8296097720544,110.03560451628334,172525.26075718578,295398.03108653775,195143.00423803364,32,2031,1429,1
-1254.238004799258,24.722905978120778,112.2285249321132,172057.21749268452,295996.9063424174,191727.32025671125,31,2030,1431,1
-1271.0230036266141,31.615099694161284,113.87868061728632,171731.96830555736,296570.9422620121,188172.92419420008,31,2031,1430,1
-1288.0512496290758,39.534571260419916,114.97635646018479,171572.9355124533,297118.38519885944,184487.50470436574,31,2030,1429,1
-1305.2079478060025,48.494237789570356,115.53354312835224,171601.84179171704,297639.1147627106,180678.73509110513,32,2033,1429,1
-1322.3687599931286,58.495143463466796,115.5804341428777,171838.45037102015,298133.5813684236,176754.38096064547,32,2030,1430,1
-1339.3950722559762,69.52973458199187,115.15768587572988,172300.35410103344,298601.3298315619,172722.78538281508,31,2032,1429,1
-1356.1282990394366,81.58260987147617,114.30646971373008,173002.73479741265,299039.5798530336,168593.53701409028,32,2031,1434,1
-1372.3842985902209,94.62873420293764,113.05870508751369,173958.09084887546,299442.4469171674,164378.18693596788,32,2032,1430,1
-1387.948121642362,108.63111393036372,111.42776011509426,175175.88453895005,299800.878689273,160090.96310697324,32,2030,1429,1
-1402.5709005054864,123.53890335202111,109.40245214398642,176662.09297432785,300103.1755645392,155749.59443339866,32,2031,1433,1
-1415.97465473046,139.2860039710891,106.94915204130892,178418.59573908243,300336.2511528604,151376.29767040574,32,2031,1433,1
-1427.868640575841,155.79082357842927,104.02140535697387,180442.24672907937,300487.64288886136,146998.797582938,32,2030,1433,1
-1437.9678104128336,172.95672739569827,100.57090494951872,182723.75780659413,300547.4265546528,142651.11957180712,32,2031,1431,1
-1445.9989839954499,190.6709897892748,96.55606199540128,185246.8419528012,300509.16547371075,138373.70559233634,32,2031,1433,1
-1451.6942163341528,208.80095540277648,91.94876046855669,187987.96048880997,300369.9831100457,134212.66259089188,32,2030,1430,1
-1454.7827605109378,227.1883981564624,86.73954424795025,190916.65350254506,300130.1990945862,130218.76415111737,32,2031,1431,1
-1454.9906532361977,245.64467750963215,80.9416171667011,193996.3221509201,299792.6881350357,126446.71900065277,32,2031,1430,1
-1452.0479677978599,263.94874789126385,74.59462149139726,197185.28562986443,299362.1055497266,122954.50980436722,32,2031,1433,1
-1445.698758652618,281.8466830181329,67.76666543709139,200437.58964836554,298844.3535519432,119802.81480080151,32,2031,1465,1
-1435.714611204475,299.05035277005624,60.5519001456548,203703.39959204505,298246.54976418597,117054.57850791952,32,2031,1428,1
-1421.9163081408515,315.236833316102,53.06475633846978,206929.48098042028,297577.39066004875,114774.45385165488,32,2031,1430,1
-1404.1985181769148,330.05304349547134,45.434931020133355,210060.00857241167,296847.6646796815,113028.13862775874,32,2031,1433,1
-1382.548640342655,343.1326241776842,37.80280573683182,213038.1350770598,296070.75602695544,111881.50919640958,32,2031,1428,1
-1357.058324969423,354.1276780262985,30.31184192931676,215808.91693031383,295263.03348646953,111399.14242191332,32,2032,1432,1
-1327.9279272014167,362.7431818979478,23.100213367873987,218322.8774208365,294443.934852258,111642.46459204495,32,2031,1432,2
-1295.4597763847828,368.7638612003727,16.298433239190675,220539.55235571184,293635.5181835104,112667.76703925073,32,2031,1429,2
-1260.0386528157283,372.07679949642454,10.036105964960909,222431.32943249465,292861.50530438975,114523.75466344511,32,2031,1430,2
-1222.1067588531675,372.68819378332546,4.453531273190859,223986.66747763238,292146.218938131,117248.95600259228,31,2032,1429,2
-1182.1365452145603,370.7274368867501,-0.2897001003562101,225211.2640390255,291513.58305277355,120869.91574824222,32,2031,1430,2
-1140.5989578543663,366.43975684431194,-4.0140230603274825,226126.92250570556,290985.36195435224,125400.53708261566,33,2031,1464,2
-1097.9364457324432,360.1737855198949,-6.526799947455562,226768.5434680323,290577.9198048303,130842.22605374093,32,2032,1428,2
-1054.55126106918,352.36779388207805,-7.63309673797627,227180.1433537842,290298.4562591517,137184.18226653707,32,2031,1432,2
-1010.8039784623812,343.5270907472744,-7.14966422402138,227409.94693414387,290141.804249902,144403.7953418407,32,2031,1430,2
-967.014998000586,334.182600255688,-4.923061386742542,227504.00793611756,290087.80996615486,152467.63449275764,32,2032,1434,2
-923.4716726160881,324.8379978270099,-0.8477278599420953,227499.8374344865,290099.9272675065,161332.82537193023,32,2031,1429,2
-880.4471752559272,315.91307460381245,5.114517747247484,227421.5888110847,290126.62444733153,170948.85471169223,32,2031,1429,2
-838.2292350031086,307.6838979310513,12.905514103949708,227276.65084670048,290106.07940706186,181260.3246716122,32,2032,1431,2
-797.1457617332094,300.2397386609155,22.33912370130378,227054.49641779973,289972.27410706045,192209.66248103132,32,2031,1429,2
-757.5738807737235,293.48416828443123,33.08646433601571,226730.1767000694,289661.05015985534,203738.72635014457,31,2031,1432,2
-719.9306731002001,287.18152490247553,44.6869897571965,226272.9369405328,289116.49144080677,215789.65389174226,32,2031,1429,2
-684.6549124490901,281.02154716595953,56.58143235881849,225656.23593811234,288296.78624768363,228304.7118729724,32,2032,1433,2
-652.1833533333162,274.6786445607347,68.17093345066321,224865.48056591486,287178.6849299809,241224.69956950648,32,2030,1431,2
-622.9183860302318,267.8624771390604,78.90413460446173,223903.02660066087,285761.42455110746,254486.62380128945,31,2032,1429,2
-597.1981870806151,260.35346969049374,88.36082173648956,222790.1006185232,284069.53441150853,268021.82448669913,32,2031,1428,2
-575.2863913791205,252.01562099401207,96.30075733214045,221564.51338268508,282151.63855977525,281756.1794359354,32,2032,1433,2
-557.380866453572,242.79424445797255,102.67935191541066,220274.74590460517,280073.9558871105,295613.1068164881,32,2030,1432,2
-543.6294962664347,232.7082816617118,107.63746711723958,218973.3214519951,277911.1824039283,309517.142984326,32,2031,1432,2
-534.1431844507334,221.83574211107165,111.46224172565287,217711.40137167368,275737.2796276902,323396.0833522152,32,2030,1429,2
-529.0018804353691,210.28932148584437,114.5242964686618,216534.12012896748,273616.4522057959,337182.1628497202,32,2031,1433,2
-528.2542734282116,198.19041752113517,117.21648457923236,215476.96270404162,271596.37735141267,350812.4770778696,32,2031,1429,2
-531.9140422267262,185.6493939472133,119.9095241930534,214564.09037414737,269705.8956380875,364228.73604776274,32,2031,1429,2
-539.9542840893012,172.75032823867562,122.91697641036656,213808.16747056562,267956.0494921146,377377.2938643097,32,2030,1429,2
-552.3011779371809,159.54166700402914,126.46897125763047,213211.0282127312,266342.4582663753,390209.3063495887,32,2031,1429,2
-568.8290704715331,146.0381403476289,130.7006281334796,212765.15048624933,264848.52921183774,402680.5058513878,32,2031,1433,2
-589.3584339941812,132.23271975734966,135.65161519150823,212455.8412314086,263449.6204474865,414750.9050064217,32,2032,1428,2
-613.6566695158901,118.11099766152002,141.27153074866843,212263.40588977272,262117.22672626495,426384.2862487385,31,2031,1431,2
-641.442703862697,103.66158945175127,147.43180717736567,212164.77424160033,260822.50052527257,437547.4291215179,32,2031,1430,2
-672.3960191550345,88.88166298906157,153.94524456766567,212134.7592284778,259539.6018376767,448209.7131894177,31,2032,1430,2
-706.1665593046761,73.77923070031578,160.58713512225597,212146.92024674895,258248.63204889966,458343.0458093285,32,2032,1434,2
-742.3840281864843,58.3731685176766,167.1139865175013,212173.85402541602,256937.53357363364,467921.92066263483,31,2031,1431,2
-780.6689159381335,42.6916560866809,173.2829694552969,212187.14350842615,255603.17799537216,476923.88825113914,32,2031,1431,2
-820.6424532363985,26.76999825834296,178.8705463799877,212157.29874129157,254251.78752266977,485329.99573413597,32,2032,1431,2
-861.9333113065778,10.646523486473036,183.6876137401709,212053.8541342777,252898.3110288357,493124.7645198257,32,2031,1433,2
-904.1841000780731,-5.645589973940538,187.59287747779385,211845.5936280154,251564.66416881018,500296.0961133125,32,2032,1429,2
-947.0568062113297,-22.08756862808635,190.50201076452933,211500.7536574939,250277.5092062648,506835.120899257,32,2031,1429,2
-990.2358412908525,-38.68223914310408,192.38677298342003,210987.17380397918,249065.86954338453,512735.80970230704,32,2031,1429,2
-1033.4309677903864,-55.46125627257132,193.26243468998695,210272.51539387254,247958.29411652128,517994.5802494177,32,2031,1429,2
-1076.3788179697076,-72.4924690231922,193.16927252313025,209324.75648361703,246980.22306513131,522609.90796701267,31,2032,1429,2
-1118.8413541237292,-89.88479356742342,192.15497372922334,208113.46658898896,246152.28989955934,526581.8476078772,33,2032,1430,2
-1160.603562454575,-107.79005573910683,190.25880034915747,206612.10967080737,245489.25045781082,529911.5610824411,32,2031,1430,2
-1201.4705121251293,-126.40042745950934,187.49904409880457,204800.639639505,244999.3881427569,532600.7385303997,31,2030,1430,2
-1241.261790982451,-145.93766299304107,183.86755350585537,202667.7923831711,244684.70227408942,534650.6785414476,32,2032,1429,2
-1279.8038154718017,-166.63401469827977,179.33102206132293,200213.24180059187,244541.83194894154,536061.1141591085,32,2031,1430,2
-1316.9225174872108,-188.7114095731879,173.83673636399544,197449.3456921699,244563.25383591405,536829.2032457889,32,2031,1429,2
-1352.4397661939356,-212.36298916524547,167.32263012781917,194401.73989124794,244738.55033654024,536949.02235628,32,2031,1429,3
-1386.1744460583368,-237.7353474139309,159.73077069930432,191108.31287429613,245055.96651900036,536411.6190551416,32,2031,1428,3
-1417.9443467840897,-264.91306021796674,151.01983193667652,187616.80533074087,245504.07279481855,535205.519492799,32,2032,1432,3
-1447.567002738612,-293.90957352309164,141.17439576804372,183982.118360721,246072.9606635039,533317.4914896057,32,2031,1430,3
-1474.8618769882232,-324.66456666406265,130.21265660812216,180263.63970571727,246754.91634646078,530733.4749247942,32,2031,1430,3
-1499.6537949181056,-357.0452715352684,118.19184835440194,176522.01965036386,247544.90818817427,527439.7068780854,32,2030,1429,3
-1521.776889271808,-390.85101067582514,105.21010429559757,172816.07870385144,248440.92479421248,523423.8594684205,32,2030,1430,3
-1541.0814365017975,-425.82177207737686,91.40493828453357,169200.6534142142,249444.01397809,518675.98941981926,32,2031,1430,3
-1557.443164056338,-461.64797110636357,76.94858067843109,165724.9682800533,250558.0318328802,513189.3645596146,31,2032,1427,3
-1570.7709765247403,-497.97655440736094,62.0421348108928,162431.56087771317,251789.19083642916,506961.2776076891,32,2031,1429,3
-1581.0123098021386,-534.4141540405744,46.90991001778196,159356.1080082015,253145.3965067475,499993.70943634724,32,2031,1430,3
-1588.1577520861097,-570.5308076963453,31.793152441930683,156527.79843008504,254635.36037027027,492293.66228955175,32,2032,1430,3
-1592.243603731118,-605.8632980184585,16.944290943740256,153969.85778860754,256267.67786595496,483873.3459488384,32,2030,1431,3
-1593.349927811623,-639.9169041996329,2.621392699193763,151700.1203258411,258049.98009147143,474750.2662517081,32,2031,1433,3
-1591.5946996467592,-672.1670705570444,-10.92027731391159,149731.5959618588,259988.02588258657,464947.03997109935,31,2032,1429,3
-1587.127519483254,-702.0606293190625,-23.437679369820554,148073.02242680246,262084.72919430677,454491.34200672904,32,2030,1431,3
-1580.1256750901782,-729.0181223010035,-34.70632155565587,146729.37089546424,264339.23494249734,443416.2681191832,31,2031,1429,3
-1570.792602967425,-752.4412220496699,-44.5242159772527,145702.1915746289,266746.1280316438,431760.7933058787,32,2031,1429,3
-1559.3572377459411,-771.7234479976541,-52.714895172426715,144989.6907343786,269294.9416259687,419570.4314560647,32,2032,1429,3
-1546.0706050677852,-786.2622028212809,-59.129571836195296,144586.43949529296,271970.17980684387,406898.13536427676,32,2030,1432,3
-1531.1966774367834,-795.4745468625089,-63.6488944345029,144482.69872208862,274751.85882399237,393804.9891547726,32,2031,1429,3
-1515.0014564646333,-798.8165702529292,-66.18367440664527,144663.68223473878,277616.27088661265,380360.83802486706,32,2031,1433,3
-1497.7450991465482,-795.8103009337102,-66.67352606540322,145109.17683629473,280537.0220308892,366644.94830417284,32,2032,1430,3
-1479.6753318350904,-786.0821713098202,-65.08384006604773,145793.59086851205,283486.58774131624,352746.2547501776,31,2031,1429,3
-1461.0208652532222,-769.400423786145,-61.40406231438382,146686.1754359316,286437.6389465384,338763.3509730191,32,2031,1428,3
-1441.9867395219069,-745.6999778857994,-55.65272118870429,147751.21751039292,289363.08292558463,324803.89411663165,32,2031,1433,3
-1422.7525012155584,-715.1002010445674,-47.890985319779595,148948.35404389026,292234.9532652378,310982.56340612605,31,2030,1433,3
-1403.4739184147772,-677.9198121438321,-38.23789216828447,150233.24614686196,295023.17197734094,297418.4383209811,32,2032,1429,3
-1384.2878872043652,-634.6841648715476,-26.879869606125055,151558.904352394,297695.2255067173,284232.18145676184,32,2031,1428,3
-1365.3177646998736,-586.1215485661339,-14.074845281493346,152877.7582070482,300217.1514295749,271541.90401545557,31,2032,1432,3
-1346.675738475643,-533.1499741208324,-0.15307215100203564,154143.81838711526,302555.26239819505,259458.6450232299,32,2032,1428,3
-1328.4589258089966,-476.8506356101162,14.489120236843235,155314.62674829506,304678.1891985301,248082.49857657784,32,2031,1430,3
-1310.7397815601992,-418.42537717842185,29.406293208287245,156353.34976025872,306559.3023828187,237498.64874583535,32,2031,1429,3
-1293.557153919832,-359.1546054479111,44.12608571843412,157230.43794947673,308178.80052998505,227774.27815908662,32,2032,1432,3
-1276.913100829296,-300.3647121382542,58.171345088392926,157923.70608733184,309524.74977053906,218957.70861435734,32,2031,1433,3
-1260.7766907333814,-243.39169681621433,71.08212649815415,158416.7869216156,310593.4344623749,211079.00212429115,32,2031,1431,3
-1245.0967815370327,-189.53053514970506,82.428919123519,158697.18065696096,311389.5261467307,204151.12539909466,31,2032,1428,3
-1229.8247335273256,-139.94513816368962,91.80877535630975,158756.1108624955,311926.5950489155,198171.18779881587,32,2031,1428,3
-1214.9373723177534,-95.52178004530421,98.83743467121799,158592.24995161782,312228.58461778,193121.11573816862,32,2032,1427,3
-1200.4439842664794,-56.7367407903089,103.1740232980788,158219.0151814477,312332.08988886426,188967.76848190592,32,2031,1428,3
-1186.3762240431338,-23.640307792249086,104.61154313378103,157672.26249448044,312288.29733494995,185663.15304281667,33,2032,1429,3
-1172.7797962578406,4.041477931082094,103.19495207792724,157013.26771340822,312162.86629968847,183145.34400869487,32,2030,1428,3
-1159.7189900156884,26.77561555496522,99.26875135835463,156323.45623435726,312032.11590166035,181340.48890864948,32,2031,1433,3
-1147.279356775191,45.11815601899002,93.41003401908296,155691.8880802209,311973.98246454215,180166.64542200207,32,2031,1429,3
-1135.5552907194478,59.63084957841947,86.29876389458293,155200.28737322916,312054.7104041686,179539.71919408508,32,2031,1428,3
-1124.6309019213693,70.82356701151805,78.60982377054508,154912.368137096,312317.4803188899,179379.47862989694,33,2031,1430,0
-1114.562357210455,79.14816442228805,70.9549727975133,154870.59137629892,312778.3382601767,179613.29195076108,32,2031,1432,0
-1105.3601464545816,85.03544984210009,63.844627240457314,155097.61182399318,313428.1186736547,180177.26113110167,31,2032,1432,0
-1096.976967150167,88.93132059416037,57.65761027281657,155599.17426459704,314236.2047755791,181015.50896906725,32,2031,1429,0
-1089.3152831229597,91.29384800696187,52.631870972028835,156367.56193227408,315154.2438386013,182078.85201553005,32,2031,1431,0
-1082.2572976880554,92.55221833226186,48.87673496167777,157385.37015614758,316120.24733796023,183324.16842860833,32,2031,1433,0
-1075.699473408112,93.06194881899249,46.39418415427538,158628.32567657842,317063.22645694384,184714.8065898605,31,2031,1429,0
-1069.5703206590356,93.08492741965858,45.09876467687345,160066.21721891567,317909.07919977506,186221.38322187905,32,2031,1428,0
-1063.8262943584996,92.79574166481045,44.831916784763,161662.80060910957,318588.70563745726,187822.1107747967,32,2031,1432,0
-1058.4363504797109,92.29935316254976,45.37094434333749,163376.074081065,319046.0683323615,189502.22436698625,31,2031,1428,0
-1053.3690962094593,91.64619571819318,46.442804516616384,165160.22304402132,319243.7054400697,191252.53081339982,32,2031,1429,0
-1048.588713359552,90.84199549802395,47.75246973895788,166969.51985573402,319165.90118816734,193067.3664168923,32,2031,1432,0
-1044.057828121115,89.85629082255403,49.01714868215772,168762.31684274494,318819.3253316956,194942.55692399573,32,2030,1427,0
-1039.744054617893,88.63464294396655,49.99538115670399,170503.52372162335,318230.7635970272,196873.96092448218,30,2030,1429,0
-1035.6282382305303,87.11692597889126,50.51180071055846,172165.97635133026,317442.00972511544,198856.70948931435,32,2031,1428,0
-1031.7110579003597,85.25453006134659,50.47416004905211,173731.17807295173,316502.25527520064,200884.93893824192,32,2031,1431,0
-1028.0125019816576,83.01778695364547,49.87329723529865,175189.22445562333,315460.6023633997,202951.77110589482,32,2030,1429,0
-1024.5630930129505,80.3952877675584,48.766196307767856,176537.75066013887,314360.95975331386,205049.4255997262,32,2032,1429,0
-1021.3929627121335,77.39222131116566,47.25289615981217,177780.02829102107,313238.77522591356,207169.4589646429,31,2032,1427,0
-1018.5242874291675,74.03164479880685,45.454052125992625,178922.9475753703,312119.350934079,209302.97577626625,31,2030,1428,0
-1015.9672256735658,70.35721306453017,43.48862252966002,179975.5606340656,311018.0816516238,211440.6604711683,32,2030,1428,0
-1013.7184832217581,66.4332778962766,41.45595408717147,180948.10536586537,309941.91207864304,213572.71697319768,32,2032,1429,0
-1011.7625707189909,62.339496616908875,39.427677884016745,181851.18903512816,308891.4433561991,215688.93234263148,32,2031,1428,0
-1010.0748841668288,58.16108802036212,37.44670464702933,182694.96520785557,307863.61914962035,217778.9980706703,32,2031,1428,0
-1008.6250583477636,53.97995411059784,35.5289397903549,183488.37782554684,306854.27112473967,219832.91627969424,32,2031,1428,0
-1007.3801429269065,49.86962233941953,33.667173364801464,184238.68654256323,305859.8087372343,221841.3140179226,31,2030,1428,0
-1006.308049178404,45.89210372064676,31.83756948329063,184951.30229320476,304878.184841669,223795.73795977712,32,2031,1428,0
-1005.3806715931202,42.095500092805246,30.006734577001673,185629.81034174465,303909.32470054727,225688.87866144418,32,2032,1431,0
-1004.5756734655431,38.513097197369426,28.13729378652254,186276.16068401985,302954.9598948251,227514.6575747439,31,2030,1429,0
-1003.8769155140626,35.16404046542433,26.19282544871749,186891.06774475364,302018.0042430915,229268.29831321634,31,2031,1427,0
-1003.273786633461,32.05518468915297,24.142696651756204,187474.48302818602,301101.8838370585,230946.3604518949,32,2031,1432,0
-1002.7594938578267,29.183939243163717,21.96609761060137,188025.98053914172,300210.08862960164,232546.63418562955,32,2032,1430,0
-1002.3289298095079,26.541785785473824,19.655280992388963,188545.06349818318,299345.88095137273,234067.94821592068,31,2031,1428,0
-1001.9774312810227,24.117330688803055,17.217568518567518,189031.35081464928,298512.1411760303,235509.9536248913,32,2031,1428,0
-1001.7010593838486,21.897903033573996,14.674881261784611,189484.57910442012,297711.37457832595,236872.91680952083,31,2031,1432,0
-1001.4976927016655,19.869954792236303,12.060671633084025,189904.50219766446,296945.7643319966,238157.5599279063,32,2031,1428,0
-1001.3678096345532,18.018935245266608,9.415939502734892,190290.80567803,296217.19020926254,239364.92621967447,31,2032,1464,0
-1001.314304323013,16.328883517140753,6.785557355107223,190643.11562120166,295527.1971168075,240496.26591019685,32,2032,1429,0
-1001.3414833302663,14.78186287909642,4.214748827863839,190961.11648600845,294876.904139582,241552.99074887962,32,2031,1433,0
-1001.4539922637816,13.357762405978077,1.7459791486617067,191244.6883292736,294266.9216318975,242536.6730622871,31,2031,1430,0
-1001.6561668616832,12.03505889524932,-0.5838322087190781,191494.0030469803,293697.33579254895,243449.05046414363,32,2032,1430,0
-1001.9516068077211,10.792315688791989,-2.746307554185379,191709.62688782305,293167.73178523267,244292.04711693464,32,2032,1432,0
-1002.3428241305324,9.609458955660578,-4.723846005369008,191892.64877708576,292677.25172856584,245067.76551966133,31,2032,1429,0
-1002.831514336487,8.46816652167105,-6.509885093165757,192044.81920145967,292224.73810878483,245778.3821161589,32,2030,1431,0
-1003.4199985916875,7.351493990399983,-8.107313177275998,192168.70290078694,291808.9677234646,246425.95245639043,32,2032,1429,0
-1004.1130733546945,6.243531975777729,-9.52593120207041,192267.78055534212,291428.90000412334,247012.15273549143,32,2031,1429,0
-1004.9184996302026,5.130517174986443,-10.779525716007335,192346.39093915813,291083.8663359099,247537.95486144724,32,2031,1430,0
-1005.8454346199907,4.004297525054926,-11.882564756117286,192409.5152633156,290773.6942447524,248003.27072583718,32,2032,1429,0
-1006.9026651228849,2.865663966967424,-12.84660771004686,192462.5442807929,290498.7634760126,248406.7167314352,32,2031,1429,0
-1008.099318387978,1.7227575236861332,-13.676881612140468,192511.09774268355,290259.91612117813,248745.59944113588,32,2031,1429,0
-1009.4474594180267,0.5844981437398301,-14.370962934695966,192560.777248075,290058.16541760135,249015.9587577706,32,2031,1430,0
-1010.963466617085,-0.5449547949147087,-14.921210543997233,192616.80549869503,289894.3655279842,249212.48602756395,32,2031,1429,0
-1012.6672593213488,-1.6662000902239225,-15.318982134446887,192683.67480443342,289769.1282732414,249328.46143698707,32,2032,1429,0
-1014.5808196250294,-2.7803766726142984,-15.557315255084252,192764.90332065415,289683.07122618274,249355.9363933824,32,2030,1429,1
-1016.7271824825399,-3.8847330636636053,-15.630816078565612,192862.91663607256,289637.18722811004,249286.1333522905,32,2031,1427,1
-1019.13011707213,-4.970032836936114,-15.533587433577178,192978.97248130018,289633.0524952763,249110.01448160977,30,2030,1428,1
-1021.8143204850843,-6.019422101506556,-15.256696864772051,193113.01699822617,289672.77081404027,248819.04864015215,31,2031,1428,1
-1024.8056902321812,-7.008546909769752,-14.786699028782913,193263.47720262053,289758.74954753934,248405.97802151024,32,2030,1429,1
-1028.1310945907155,-7.907325808507826,-14.106258713709032,193427.03860460458,289893.4294280819,247865.35101894912,32,2032,1433,1
-1031.817836080215,-8.683208523973962,-13.196448899080716,193598.45742588062,290079.0301943953,247193.8422205659,32,2031,1428,1
-1035.8938331976326,-9.305886713233887,-12.039589395840046,193770.55856441866,290317.3722631767,246390.34163131187,31,2032,1428,1
-1040.388742129901,-9.753342763013146,-10.621639150150886,193934.5367663794,290609.83373985766,245455.72902893863,32,2030,1431,1
-1045.3349815151767,-10.017020174727786,-8.932927490082195,194080.4579142927,290957.4391033465,244392.43766881744,31,2031,1427,1
-1050.7679844215982,-10.10334850991295,-6.966209803347598,194197.87931565053,291361.0397538987,243203.84431912395,32,2032,1427,1
-1056.7258178337693,-10.031249718805617,-4.712491709397915,194276.59982208704,291821.5203595764,241893.43302666157,32,2031,1429,1
-1063.2482424223158,-9.827445425968733,-2.15692635466288,194307.3394112919,292339.89810109505,240464.01394463537,32,2032,1427,1
-1070.3754589036052,-9.521007459803753,0.7231913083281464,194282.1522776168,292917.2081049183,238917.25671676715,31,2031,1429,1
-1078.1471885889753,-9.137427620895117,3.958249538672674,194194.64049112579,293554.21490065404,237253.4270450441,31,2031,1429,1
-1086.6025883315572,-8.693446123748615,7.584280574210263,194040.03560945598,294251.0886863502,235471.27892115628,32,2032,1429,1
-1095.7811921823122,-8.193343336768395,11.637216785918522,193815.1662580773,295007.09434669034,233568.1302416834,31,2031,1428,1
-1105.7240680241566,-7.625259181975878,16.1412931355159,193518.4255058985,295820.2034719281,231540.0325577863,32,2031,1432,1
-1116.4728244128646,-6.956990789130821,21.094909552566047,193149.9424080413,296686.57001610793,229382.01970522528,32,2031,1429,1
-1128.065213907882,-6.133359826395241,26.4621694069697,192712.27012827198,297599.97935302596,227088.4578213876,32,2031,1432,1
-1140.5301491891603,-5.078798055325525,32.17630707126881,192211.68217638333,298551.6010092978,224653.4206910323,32,2031,1428,1
-1153.8855917393112,-3.705135877612243,38.15111616636307,191659.35470910036,299530.34094120545,222071.0530316544,32,2032,1429,1
-1168.1385172685984,-1.9193479846812893,44.289507625799516,191071.43334647923,300523.82969496085,219335.93443531892,31,2031,1429,1
-1183.28391510333,0.37189864328112193,50.4869526596798,190468.06489030478,301519.7642122272,216443.38697383922,32,2031,1432,1
-1199.3023114300934,3.25973702260902,56.635011962762256,189872.4105611111,302506.9771821607,213389.67839676497,31,2031,1428,1
-1216.15828101275,6.8306450673346895,62.626914349113925,189310.10680268373,303475.90947392146,210172.01671775756,32,2031,1429,1
-1233.8006880188707,11.163367866940614,68.36477904710183,188808.8457934865,304418.7353899009,206788.24058683208,32,2032,1430,1
-1252.1620931404034,16.326551272530477,73.76637515759548,188397.86951502282,305329.3164215384,203236.4782987003,32,2031,1430,1
-1271.156347358965,22.378101006260795,78.76917604968678,188107.33215418737,306202.9358965858,199515.0779024912,32,2031,1430,1
-1290.6761541933236,29.36527537993869,83.33215426964902,187967.4294600268,307035.81630288094,195622.7771734774,32,2031,1430,1
-1310.5915160977356,37.32424079560571,87.43543726304829,188007.43615120254,307824.54496038175,191559.0964591757,31,2032,1430,1
-1330.7485125027877,46.27948157454607,91.07590495180537,188254.69636337555,308565.53543625923,187324.96943455955,31,2031,1430,1
-1350.9675806823586,56.244154196514145,94.25826533598072,188733.40574734457,309254.5676753627,182923.52734057468,32,2030,1430,1
-1371.0405561321397,67.22103259480252,96.9851707881315,189463.45456186036,309886.4958595923,178361.01249872256,32,2032,1429,1
-1390.7271270582723,79.20286349815876,99.25005662051385,190459.7054180192,310455.28587450675,173647.83441669605,32,2032,1428,1
-1409.7523945923163,92.17144843081643,101.03323761927926,191731.63238646413,310954.40982774674,168799.7029628528,30,2032,1429,1
-1427.8080939087083,106.0950256263548,102.30141163107335,193283.13198352538,311377.40875529865,163838.69049664718,32,2031,1433,1
-1444.562983661416,120.92404974553874,103.01127061562734,195112.36265645584,311718.48712420533,158793.9391578417,31,2032,1428,1
-1459.682897053076,136.58658151786068,103.11568636187538,197211.41385722772,311973.0659373792,153701.77259843572,32,2030,1432,1
-1472.846787886016,152.98457021440396,102.5685971406946,199565.79315308193,312138.03566648107,148605.36052742144,32,2031,1429,1
-1483.7455879458844,169.99088411083804,101.32624868636971,202154.16193443295,312211.5012572948,143554.03599855307,32,2032,1429,1
-1492.0695137588639,187.44605265764577,99.34562925792352,204948.7389459214,312192.1855564335,138602.2577935386,32,2032,1431,1
-1497.4991251250017,205.1543597037777,96.58346855300134,207916.1576324549,312078.9135459334,133808.77227178836,32,2031,1428,1
-1499.7079406473852,222.8799247826491,93.00088361251842,211018.41898214346,311870.5510350842,129236.25632196834,32,2031,1430,1
-1498.3745631941038,240.34349755870832,88.57464437845461,214213.82191314356,311566.4966925966,124950.9728692156,31,2031,1429,1
-1493.1983863787184,257.22253313094654,83.30904170480596,217457.5547607083,311167.5213097872,121022.38499925798,30,2031,1430,1
-1483.918400337073,273.162975114232,77.24247107818397,220702.0064942892,310676.76071198826,117522.80400186018,32,2030,1433,1
-1470.3374350307076,287.80716522432834,70.44723103702107,223897.44903443713,310100.77794720384,114526.68764326646,31,2031,1429,1
-1452.3451337601093,300.82534130142295,63.02487087866509,226993.32937078804,309450.3895107114,112109.54259674589,32,2031,1430,1
-1429.9311688981709,311.93735607647716,55.102025997925146,229940.49477721448,308740.993713354,110346.36057955479,32,2030,1429,1
-1403.1889496521644,320.9252874209855,46.82971832510789,232694.64797658386,307992.59294513817,109309.33088284804,31,2031,1429,1
-1372.3135319742353,327.64054639297393,38.38622868722751,235219.86337333743,307229.83945089404,109065.48237700596,32,2032,1429,2
-1337.5935368002172,332.00903649069164,29.983655697356323,237491.20823542163,306482.1626602714,109674.81584117337,31,2031,1431,2
-1299.3956032517722,334.0388935494308,21.876770156616534,239496.933204954,305783.7802941863,111188.53302099722,31,2031,1429,2
-1258.146296751125,333.828947090323,14.369299131697879,241240.1413229712,305173.26596691733,113647.37099795045,32,2030,1429,2
-1214.3149297215775,331.57217067252697,7.811479817044728,242739.26615412018,304691.7802514029,117080.38428062455,32,2031,1429,2
-1168.3954917592241,327.5518907920714,2.5870244766726795,244027.29679378512,304379.21098903194,121504.02987294107,32,2030,1429,2
-1120.8920085215098,322.1322395604062,-0.905141881204245,245149.79854479185,304269.0987711051,126921.33609349528,32,2032,1433,2
-1072.3092465837901,315.7417740560992,-2.2707028642088116,246160.80541393295,304382.92064410285,133321.1785650805,31,2030,1429,2
-1023.1408792288252,308.8436664523486,-1.1431280015933412,247115.41406070118,304723.38250867533,140678.1242395732,32,2032,1430,2
-973.8537345152537,301.8925503527736,2.7929651585906,248060.48889903497,305268.5770426791,148953.3013901678,31,2031,1428,2
-924.8781558167152,295.29070030947616,9.782699700762542,249026.8772319435,305969.78235856927,158095.98766074723,32,2030,1429,2
-876.613988010923,289.34969035508107,19.97662867888389,250024.49149058762,306753.9848109483,168046.19947943345,32,2030,1429,2
-829.4522303726578,284.25455781401945,33.38971563867112,251039.68366718822,307530.3908714099,178738.90656574458,31,2030,1428,2
-783.8007684441055,280.03860257058506,49.8589070228581,252035.50785974888,308198.1181678461,190108.282194981,32,2030,1430,2
-740.0975783453895,276.5832967806996,69.0303966878021,252956.99484040833,308653.77185350016,202090.33858881288,32,2032,1430,2
-698.8043533039214,273.6449177775641,90.38179973817712,253741.4284587924,308800.0994630175,214624.30082073822,32,2032,1431,2
-660.3886657369644,270.8954228920428,113.25853187195857,254329.13457288084,308554.4957633938,227652.550419018,32,2031,1429,2
-625.3020648381982,267.96996981966373,136.92032537003394,254671.4747816675,307855.7642737293,241118.58050494248,32,2031,1429,2
-593.9546678426243,264.5205185039969,160.60836540600505,254736.93752098831,306670.10733212566,254963.70690201258,30,2031,1430,2
-566.692456427224,260.26103485947755,183.6189806497052,254515.2025484703,304995.85804120003,269123.87547269714,31,2032,1430,2
-543.7840203976253,254.98946588522236,205.36839295882595,254017.45309924526,302864.504963056,283528.1284921695,32,2031,1429,2
-525.4180147101439,248.59172600130935,225.45298068625738,253273.12729426153,300337.02383029624,298099.65012208204,32,2030,1434,2
-511.7126380831272,241.03674716836957,243.6904614598322,252325.12660179244,297496.8072656159,312758.2148487398,31,2030,1429,2
-502.7343339721266,232.361466442642,260.11274472381945,251224.5309674066,294439.5948001599,327422.9380206746,32,2032,1429,2
-498.51644929418313,222.6439519323913,274.9123546983606,250024.76815870038,291260.3405280251,342015.4412154653,32,2030,1430,2
-499.06861076430454,211.974448298618,288.37686839507796,248776.6413582057,288041.2769798543,356462.2449191716,32,2031,1430,2
-504.3748293644818,200.43435532849747,300.8340126980782,247525.42492845756,284845.37601848727,370695.5567457618,32,2031,1431,2
-514.3859403994899,188.08199796255707,312.6037234239128,246309.22533898376,281714.16776984546,384653.61363841966,32,2031,1430,2
-529.0122068853327,174.94467653077507,323.95894875522424,245158.09464863088,278668.10055843147,398280.81634734443,32,2031,1431,2
-548.1172756831459,161.01995755483213,335.10226819120595,244094.1615516656,275709.40706218506,411527.2356212036,32,2030,1430,2
-571.5126762296284,146.2844587708691,346.15408080325943,243132.58948678718,272827.064099584,424347.9172572738,32,2030,1429,2
-598.9542973349318,130.7049738108757,357.14857220163447,242282.7737987459,270002.0422544778,436702.00090276246,32,2030,1429,2
-630.1443233526753,114.24904868508777,368.0397240981344,241549.36761333258,267211.6382837069,448551.6262116354,32,2031,1428,2
-664.7392708477115,96.89466797345892,378.7164079946191,240933.04715154326,264433.20466749737,459861.18679985416,32,2033,1429,2
-702.3591818114282,78.63746354189328,389.0190475288629,240430.94408967806,261647.0464468361,470596.92111152026,31,2032,1429,2
-742.5959174196914,59.493414844716746,398.75350721007175,240036.68988595495,258837.92295976158,480726.81170724414,32,2031,1429,2
-785.0232835332002,39.49801873875439,407.7041947953884,239740.20248734124,255995.57288723273,490221.15529073135,32,2032,1429,2
-829.2065172883346,18.704910861450056,415.64526617269746,239527.4740019683,253114.92345864337,499053.2689651908,32,2031,1432,2
-874.7091232334266,-2.815774360268025,422.3492548104964,239380.62482246503,250196.2476087593,507199.8375015787,32,2031,1430,2
-921.1007124474384,-24.981391427671397,427.5968681435759,239278.29398452851,247245.31335690833,514641.304018606,32,2032,1429,2
-967.9651072802754,-47.702410891392844,431.1879450186986,239196.13000826887,244273.56729001921,521362.17584906507,31,2031,1428,2
-1014.9071563871787,-70.88944861564907,432.95122365733613,239107.06622452626,241298.21637794076,527350.933512015,32,2032,1429,2
-1061.560316417005,-94.46368355496143,432.7520516214577,238981.28855354275,238341.944713582,532599.8581789623,31,2031,1430,2
-1107.5924334813499,-118.36801798444067,430.4964403799294,238786.1245976363,235432.3256480716,537104.8208443807,32,2032,1433,2
-1152.7076201548734,-142.57583644943998,426.13135900975806,238486.31632641057,232600.86938237812,540864.8446284196,32,2032,1430,2
-1196.6473646631318,-167.0982315192051,419.64285345664047,238044.896839025,229881.48784718476,543881.5221099897,32,2031,1432,2
-1239.1910024545627,-191.98758606519823,411.0527258340227,237424.36136747742,227308.85041108765,546158.2960746292,32,2031,1428,2
-1280.1544273891989,-217.33351986445092,400.413121123503,236588.01491411362,224916.970129492,547699.4775047235,32,2031,1428,2
-1319.3884688484675,-243.25191266040179,387.7984281415376,235501.7158394163,222737.70437242705,548509.0661260564,32,2031,1431,2
-1356.7756088620602,-269.8713097849926,373.2969343614843,234135.73624866633,220799.3850707524,548589.7178938783,32,2032,1433,3
-1392.222313754744,-297.31892266961927,357.0039197483757,232466.4079653756,219125.93138166022,547942.1303960418,32,2031,1429,3
-1425.6486931167021,-325.70559577788913,339.01492640848426,230477.7065132472,217736.2902534637,546564.8402750086,32,2031,1432,3
-1456.979389580584,-355.1113341950433,319.42059004086417,228162.66112146265,216644.28490296443,544454.3660324892,32,2031,1431,3
-1486.1370428441935,-385.57335101395654,298.3057978550337,225524.21976364637,215859.02766455372,541605.604008054,32,2032,1429,3
-1513.038023483047,-417.07471765257816,275.75393009917104,222575.34902964637,215385.7952196197,538012.3579494068,32,2032,1433,3
-1537.5905606791894,-449.5319235371859,251.85573816564087,219338.34300631826,215227.21771610156,533667.9699163785,32,2031,1428,3
-1559.694866971201,-482.78375983871723,226.72008266233055,215843.7206469065,215384.4250989651,528566.0500030544,32,2032,1430,3
-1579.2453332186997,-516.5866737080169,200.48328450180398,212128.82973405975,215857.87540362825,522701.25752270577,31,2031,1434,3
-1596.135457514903,-550.6189172805891,173.31619450918092,208235.9301436935,216647.92701324815,516070.1395324357,31,2032,1430,3
-1610.2640039790504,-584.4892592126708,145.4282688354042,204210.34870457568,217755.11698143973,508672.15517281013,32,2031,1430,3
-1621.542748266146,-617.7476090947698,117.06651132444667,200099.3390589367,219180.02686229284,500510.92965346127,32,2031,1430,3
-1629.9084144138492,-649.8990430809837,88.50950583026528,195951.43290019364,220922.83364813868,491595.59474171046,32,2032,1429,3
-1635.3354737999496,-680.417858308424,60.060555979150976,191816.20836990513,222982.73296113586,481942.04042331205,31,2031,1432,3
-1637.84391455759,-708.7595383077959,32.04016796247597,187744.4457914969,225357.25961049515,471573.69655474985,32,2031,1428,3
-1637.5007410577555,-734.3737528892734,4.775670216661081,183788.30480340365,228041.42996104716,460521.5830850688,32,2032,1432,3
-1634.4169126019654,-756.7155357468846,-21.40785374949164,180001.38326253658,231026.82057934426,448824.17510225455,32,2032,1429,3
-1628.7425186511527,-775.2506331501875,-46.19154634337895,176438.36820139148,234300.87377205517,436527.37674142333,31,2031,1430,3
-1620.662925140965,-789.4577771955007,-69.26384171805478,173153.833175869,237846.59589074674,423684.2249661543,32,2033,1428,3
-1610.3968909757912,-798.8308760966057,-90.32011707703981,170200.4298528352,241642.56995749893,410354.6956988166,32,2032,1434,3
-1598.192933668018,-802.884004123118,-109.06233496689383,167626.3894204767,245663.26880624908,396605.9247474687,32,2031,1429,3
-1584.3179134940333,-801.1618828208406,-125.20145948413469,165471.82414454856,249879.67689501026,382512.3303189074,32,2032,1430,3
-1569.0392567696979,-793.2540822423999,-138.46291078752986,163764.80715118663,254259.787472328,368155.7926638133,32,2032,1434,3
-1552.606653436473,-778.8164385821636,-148.59640443125252,162518.36195881,258768.66231880398,353626.0748618463,32,2032,1430,3
-1535.2367079051387,-757.6075652915604,-155.39218783744673,161728.21489837227,263368.32157879823,339021.05603651336,32,2032,1430,3
-1517.1042130101955,-729.5326557028351,-158.69945520473703,161371.5749111805,268017.54625425074,324447.1056590442,31,2031,1433,3
-1498.340818243577,-694.6817053504726,-158.44517651243643,161407.61285308553,272671.29483883124,310019.58013119403,32,2031,1430,3
-1479.0389397635693,-653.3625182760679,-154.6569185625596,161779.33262045556,277279.55111596093,295862.4687874391,32,2032,1429,3
-1459.2612584078256,-606.1278720726141,-147.4852935843524,162415.88421357682,281785.9694648447,282107.23985566734,32,2031,1428,3
-1439.0563203931679,-553.7906681813982,-137.2190522660826,163235.36783481145,286127.6237220717,268890.5262343961,32,2031,1430,3
-1418.4758211564106,-497.426532406146,-124.29318895826098,164148.77247490265,290236.9371564181,256349.49598329066,32,2032,1432,3
-1397.5848449006148,-438.3651772433959,-109.28927341172475,165064.25911697507,294045.16726000694,244616.19434775296,32,2032,1434,3
-1376.4613125973533,-378.1507242039797,-92.91869193355302,165891.1592295694,297487.23778913816,233811.78292890117,32,2031,1431,3
-1355.191826974962,-318.4450821030652,-75.9837218530063,166544.2950297535,300508.6477772288,224039.5719329757,32,2031,1464,3
-1333.875250747596,-260.89052739938467,-59.336599747991364,166948.45169916246,303073.0734244646,215378.2784876854,31,2031,1432,3
-1312.6343606110506,-206.95312740545268,-43.84509099335836,167044.6445069897,305169.7536627637,207877.0735602161,31,2030,1429,3
-1291.6189274519659,-157.75866646017585,-30.324112524524818,166801.5522955755,306821.73365446116,201551.3918581582,32,2032,1434,3
-1270.9921101629711,-113.98489078184355,-19.409400725037322,166229.06356340376,308092.7159158863,196380.38760835418,32,2030,1430,3
-1250.9166658577033,-75.87125032452467,-11.412087634376919,165384.63626655415,309086.9318346364,192308.9288708945,31,2030,1430,3
-1231.55297827109,-43.321626386446766,-6.244911654734961,164365.2679616806,309937.32194199046,189255.20903079235,32,2031,1430,3
-1213.0609577507435,-16.029806019633995,-3.4875299728575553,163287.04790269907,310783.4646042535,187121.4547198603,33,2031,1431,3
-1195.5950148265665,6.426508507988603,-2.525051696760372,162264.4153021358,311749.66788099526,185803.0908415741,32,2031,1430,3
-1179.2860225475217,24.540463111189094,-2.6641069603017202,161397.94180516148,312931.5944489603,185194.49250908347,33,2032,1430,3
-1164.2127398834593,38.86758776573058,-3.225125435886892,160768.56454724574,314389.87158279744,185192.68996075733,33,2031,1431,0
-1150.3784281689454,50.028510565709794,-3.6160233214610575,160435.16934444092,316147.2396446892,185699.62159415497,32,2032,1433,0
-1137.7088583436146,58.68999852561808,-3.3680113806907146,160435.50767485786,318188.5875561357,186623.17763744286,32,2031,1430,0
-1126.073796935558,65.50929406356543,-2.138747617288467,160789.7238966592,320463.65364881593,187878.40305888577,32,2031,1430,0
-1115.3214351289555,71.0694426751142,0.29939399552001345,161504.00050421644,322891.6137150386,189389.41348527002,32,2031,1431,0
-1105.313977453041,75.84364537142982,4.070160745317163,162571.73897664662,325367.834172914,191091.2546084995,32,2031,1431,0
-1095.9543113242821,80.19605190865663,9.189659322748549,163972.014731465,327773.52946580044,192930.9483488601,32,2031,1431,0
-1087.193047420269,84.39910681349166,15.551824338321246,165667.73532305754,329985.99668618466,194867.3068154742,32,2032,1431,0
-1079.0133939425748,88.64256152728352,22.92681098702156,167606.88239453803,331887.91245011985,196869.52307549518,32,2030,1430,0
-1071.4047876843613,93.02741304250138,30.982977720975246,169727.79359744652,333377.3551751897,198915.15369859402,32,2031,1430,0
-1064.342076101221,97.55922757156463,39.31707015615157,171965.50402006687,334377.2332345894,200988.27607864086,32,2031,1430,0
-1057.7793716849242,102.15819176477369,47.48500304727785,174256.64261105633,334841.4609000428,203077.83735833052,32,2032,1432,0
-1051.6550771916786,106.68835248697002,55.04114164194325,176543.30978928623,334758.2877655762,205175.703853615,32,2031,1430,0
-1045.9010358651565,110.98988715920565,61.582398087260884,178776.08477177628,334151.09259735234,207274.6922261031,32,2031,1429,0
-1040.4532083287372,114.90208716355785,66.79020524472814,180915.771284239,333075.0798463018,209367.2631771223,32,2032,1431,0
-1035.2647731697753,118.2809818115855,70.47091831697611,182934.3705315458,331609.38077768293,211444.96674822533,32,2030,1429,0
-1030.3185844319753,121.01326867306344,72.58237841664942,184815.39594855902,329847.22878104943,213498.40535145724,32,2030,1431,0
-1025.6310827677016,123.0224295227509,73.22765324032967,186552.98009176168,327886.04164010636,215517.62881660208,31,2032,1428,0
-1021.2438614873482,124.269143951017,72.6176647457999,188149.6936677494,325817.06572419277,217492.83139967854,32,2030,1430,0
-1017.20870839886,124.75088999130844,71.02525688514618,189613.87734875648,323716.9839873993,219414.8929259811,32,2032,1430,0
-1013.5746572802243,124.50108830153424,68.74522860605106,190957.17620312813,321644.21334189293,221275.44313948008,32,2031,1428,0
-1010.3795159446134,123.58576903647086,66.05881873435487,192192.29956989127,319638.78384980914,223066.6166197109,31,2030,1429,0
-1007.6450580596265,122.09740653757608,63.20615782726277,193331.2225515203,317723.85093640507,224780.7836032805,31,2031,1428,0
-1005.3751749933272,120.14630997844951,60.37076640793677,194384.04949511765,315908.28076977754,226410.56262506952,32,2031,1429,0
-1003.5561398160396,117.85051497170281,57.671297285403064,195358.34223227005,314190.10265257023,227949.30973843738,31,2031,1428,0
-1002.1582061279203,115.3270854285839,55.158408490128686,196258.8374215263,312559.96738299343,229391.7769426673,31,2031,1429,0
-1001.1375404276695,112.6849485811194,52.81920502334119,197087.63771249368,311004.2158523145,230734.52862467762,32,2030,1430,0
-1000.4389225832895,110.01684251780378,50.58950584117881,197844.8056670986,309508.07440471,231976.0941351487,32,2031,1429,0
-1000.0002944953237,107.39260284349491,48.370108730583745,198529.0442629276,308058.6518868309,233116.926083323,32,2031,1429,0
-999.7589273205837,104.85798634366594,46.04569956943146,199138.25032345438,306647.0534939746,234159.169944583,31,2031,1429,0
-999.657867762956,102.43842777551323,43.50832620297186,199670.02789748865,305269.69889067544,235106.32562106368,32,2031,1429,0
-999.6503467727485,100.14403805237228,40.68018449392296,200122.12992057964,303928.84250084223,235962.90033492484,32,2032,1429,0
-999.7015465621009,97.97396360451606,37.52805287145727,200492.7029033726,302631.88758698694,236734.08741753892,32,2031,1429,0
-999.7896501607527,95.91995702250657,34.06848015664547,200780.38226577724,301389.511166259,237425.46316905506,32,2031,1429,0
-999.9066494160525,93.96855635130856,30.364670341517705,200984.29987070253,300213.4779159823,238042.70923616638,32,2030,1430,0
-1000.0569346912214,92.10198166740425,26.514164156027384,201104.0324434802,299114.77241833333,238591.35356003116,32,2031,1430,0
-1000.2530523086468,90.29914401419005,22.629273149258292,201139.5499997117,298101.91585302865,239076.50728528225,31,2032,1429,0
-1000.5109051071965,88.53737282823721,18.818453952786253,201091.2052226306,297179.72252527764,239502.63927368884,31,2030,1429,0
-1000.8460272008329,86.79415665735371,15.173835130621478,200959.79480271888,296348.9670580055,239873.47088989936,32,2031,1430,0
-1001.2706755708703,85.04799149800186,11.762505153688636,200746.70941846585,295606.80942647083,240192.02113187785,31,2032,1429,0
-1001.7919898362549,83.27811389762381,8.621087527124882,200454.13203618533,294947.57983115106,240460.75435454023,32,2030,1430,0
-1002.4118469805053,81.4638329878481,5.756347081961257,200085.24709994774,294363.8173829871,240681.79550514577,32,2031,1430,0
-1003.1280614496375,79.58438969699952,3.151699035125951,199644.45237034204,293847.56559182686,240857.1914486023,32,2032,1429,0
-1003.9360331358707,77.61968227349774,0.7761781143436112,199137.5135082717,293391.5625964454,240989.11865887183,31,2030,1431,0
-1004.8304686920492,75.55167506564091,-1.4063921278640061,198571.5497315846,292989.93350807176,241079.97930360326,31,2031,1428,0
-1005.8071903651457,73.36609309117853,-3.428037547780345,197954.8176097569,292638.4329770017,241132.44638568038,32,2031,1429,0
-1006.8646852170037,71.05369654711787,-5.308960066338424,197296.4056222992,292334.4136790771,241149.4885881377,32,2032,1430,1
-1008.0053017495856,68.61037510013811,-7.054130473955786,196605.87917900455,292076.54697706754,241134.3316619668,32,2031,1433,1
-1009.2362547792296,66.03615763833952,-8.653982773464167,195892.81068357851,291864.32233883283,241090.3353494667,32,2031,1429,1
-1010.5699827782457,63.334142524494105,-10.087669373051181,195166.31857719534,291697.52188191144,241020.82036079775,32,2031,1430,1
-1012.0234812534674,60.51003121568535,-11.328075586655721,194434.7679718376,291575.8483560636,240928.82546495122,32,2032,1429,1
-1013.616971028186,57.572344959917274,-12.347861064247263,193705.59535527814,291498.7172263151,240816.73922869036,32,2031,1433,1
-1015.372406650221,54.53340364953842,-13.124177133555841,192985.2454336639,291465.2101578635,240685.93255712982,32,2031,1431,1
-1017.312235763469,51.41058295564178,-13.640365206706285,192279.2358354694,291474.16307084664,240536.58784948316,32,2030,1433,1
-1019.4588332694171,48.22641451997954,-13.885631630305237,191592.27868844444,291524.26969744585,240367.6567812501,32,2032,1435,1
-1021.8346055309817,45.006387544315395,-13.854643752502033,190928.35740236493,291614.0925622642,240176.68130021245,31,2031,1428,1
-1024.4621172204863,41.77558511393752,-13.548977345341763,190290.67730235122,291741.9980775355,239959.39751469094,32,2031,1429,1
-1027.3637406656455,38.55714892951548,-12.97986748695525,189681.55625526508,291906.15051750175,239709.3941776538,32,2032,1430,1
-1030.5611709697412,35.37398630152008,-12.168152345020083,189102.4231614692,292104.7067003741,239418.1765690377,32,2031,1429,1
-1034.075324273728,32.25213455634707,-11.139841137230615,188553.92427079947,292336.1936906568,239075.66936614504,31,2030,1429,1
-1037.9264404881421,29.223394633035756,-9.92054202650816,188036.0089683698,292599.8384217333,238670.89438101085,31,2031,1430,1
-1042.1340780938142,26.326076696486922,-8.531020831614732,187547.90834655595,292895.6473828236,238192.73761646362,32,2031,1430,1
-1046.7171707125665,23.60389103777187,-6.98396586790281,187087.9744064148,293224.25140075054,237630.90361663353,32,2031,1430,1
-1051.69422157674,21.103431345355034,-5.282597411043347,186653.469069778,293586.6581743089,236976.8382575117,31,2032,1432,1
-1057.083725532854,18.86989318216282,-3.421413737258464,186240.47477627217,293984.0410919761,236224.26176259803,32,2030,1430,1
-1062.905216192322,16.940696849585812,-1.3880956914605096,185844.01145458125,294417.60434204584,235369.26322162308,32,2031,1430,1
-1069.1807735069196,15.339535855883812,0.8347412057041464,185458.3449509946,294888.50097167,234410.07319931278,32,2031,1434,1
-1075.9364519281855,14.074110132364204,3.2684667687325124,185077.50230020506,295397.75723159616,233346.45635161427,32,2031,1429,1
-1083.2030753856343,13.137606101911572,5.937100938615426,184695.98059320613,295946.15438491054,232178.68023475635,31,2032,1429,1
-1091.015911472056,12.512315306146139,8.864647929688124,184309.45359688366,296534.0449471367,230906.45678806488,32,2031,1429,1
-1099.4136868267556,12.17595493317903,12.0694348370375,183915.3738108076,297161.0675594267,229528.21005381158,32,2032,1428,1
-1108.4373646641723,12.111844677053643,15.553468836531191,183513.57438820542,297825.7372629256,228040.58509030993,31,2031,1430,1
-1118.1280604640335,12.31895417189818,19.291388676481397,183106.89796288914,298525.018394654,226438.20644729992,31,2030,1431,1
-1128.5241140467983,12.814768347041555,23.22894465209559,182701.85992778535,299254.194483169,224713.78348452656,32,2031,1431,1
-1139.6588223153244,13.629203482430787,27.29223090964558,182309.25963186173,300007.3844022241,222858.42792558513,32,2031,1430,1
-1151.559627936214,14.795970039521379,31.39824260711981,181944.41264068766,300778.53511521727,220862.03452645006,32,2030,1434,1
-1164.2474315647314,16.349114691736244,35.46145784034696,181626.85715221,301562.3184207812,218713.6634128386,32,2030,1429,1
-1177.73460274624,18.32444018170641,39.400142939336064,181379.85988515025,302354.68827238324,216401.84220416006,32,2032,1428,1
-1192.0221136265473,20.76061464347475,43.144192687425246,181230.07661185449,303153.0877986062,213914.78841431063,32,2032,1429,1
-1207.0974799387964,23.69875773755192,46.64160368137666,181207.15578079183,303956.2403734632,211240.66495521273,32,2031,1428,1
-1222.9340849366345,27.18196797258035,49.86255093969896,181342.91804866018,304763.5950282893,208367.93225921024,31,2031,1429,1
-1239.490255759511,31.255237627480085,52.800623290623236,181670.28983036,305574.63781772624,205285.81176754486,32,2031,1429,1
-1256.7065049317657,35.966134285660594,55.469202301123836,182222.24788317486,306388.12772733154,201984.88121305787,32,2032,1431,1
-1274.5012407396025,41.3665739556074,57.89423153462917,183030.79702264912,307201.1892666661,198457.79213443803,32,2031,1433,1
-1292.7663252004834,47.51420278698416,60.107711557445214,184126.10467694196,308008.44373748405,194700.08219148577,32,2031,1430,1
-1311.3637024418929,54.47088606081696,62.14192922089059,185535.6497421418,308801.4964172617,190711.06594981573,32,2031,1431,1
-1330.1233753737936,62.29807806977192,64.02090748851047,187283.00513700163,309568.8856749109,186494.7636417962,32,2031,1430,1
-1348.8420241367353,71.05125566370762,65.75011402413556,189386.45156218295,310296.4573870866,182060.78211117783,32,2031,1430,1
-1367.28238321094,80.77415258668928,67.30886910829639,191857.95702116276,310968.31011423003,177425.045429254,32,2031,1429,1
-1385.1742642088934,91.49196670959361,68.6477016051918,194702.6698683488,311568.3993516316,172610.34106407964,31,2031,1429,1
-1402.2182523426604,103.20454895918604,69.69130028730059,197918.75391301914,312082.26792509103,167646.73587312884,32,2031,1433,1
-1418.0958958983504,115.88187190557974,70.34792759065581,201497.37541058785,312498.38477240095,162571.6194079295,31,2030,1430,1
-1432.4869604810754,129.46297000235847,70.52336975364058,205422.64297099927,312809.0704713505,157429.0252215194,32,2031,1430,1
-1445.0826760920145,143.85743429529037,70.133042326447,209671.35763219002,313010.81846415583,152268.53748872265,32,2031,1433,1
-1455.5844949550524,158.94723880538197,69.10817339608072,214212.89188247346,313103.6747140185,147144.0457363783,32,2031,1434,1
-1463.693366308112,174.58740498187615,67.39717974788726,219009.6189080226,313089.84916132205,142112.2538997573,32,2031,1431,1
-1469.1017757742716,190.60560975926956,64.96466027587542,224017.57844735778,312972.3463901342,137231.54273290327,32,2031,1428,1
-1471.4941565977012,206.8025756110938,61.79062833825383,229186.98457542944,312754.32738705195,132561.69680808636,32,2032,1430,1
-1470.5538241736806,222.95385512740958,57.87096800216616,234462.6612612337,312439.26637112675,128164.09919648635,32,2032,1428,1
-1465.973073553909,238.8100404487004,53.217900158056764,239784.3070887115,312031.5555087628,124102.118396616,32,2031,1430,1
-1457.4687022096443,254.09512431276903,47.860231749869534,245086.7810985749,311537.3239650079,120441.61350202882,32,2031,1431,1
-1444.806489632087,268.50870240088676,41.84473760232615,250301.06128197841,310965.4772911005,117251.2300199006,33,2031,1429,1
-1427.8286674875942,281.7361590192184,35.23834722971881,255355.84211818216,310328.8332964853,114602.22129558666,31,2030,1427,1
-1406.4772920804305,293.4684790818197,28.12878358099853,260179.9539016324,309645.213321354,112567.30118862703,32,2031,1432,1
-1380.8120644141104,303.43025227661434,20.624281910932922,264706.1418107955,308938.50231295516,111218.14552435659,32,2031,1430,1
-1351.018351166622,311.40496833932986,12.855703475589207,268875.1000251798,308239.4185310079,110622.43121074027,32,2031,1429,2
-1317.3984314937607,317.2502966582983,4.9825334161997485,272638.74704806163,307585.5409601092,110841.30942448834,31,2031,1429,2
-1280.3468680096112,320.9092586233092,-2.797975372463997,275963.28557107877,307020.50891439687,111927.16475359241,32,2030,1429,2
-1240.3220420280604,322.4201333592367,-10.242121961048518,278831.6935049999,306592.70866740844,113921.8519970132,32,2031,1465,2
-1197.8193139756645,321.919927071237,-17.057715293931484,281244.7321240642,306353.1928175279,116855.86101258887,32,2031,1429,2
-1153.3420455231517,319.63942948541194,-22.911895515526037,283220.7120864354,306352.229909479,120748.19232261817,32,2031,1434,2
-1107.3782522146867,315.89272024253285,-27.444636663447742,284794.325812096,306635.0059346429,125606.48453297983,32,2031,1429,2
-1060.3911751650746,311.06046111436103,-30.28295353717854,286013.69299170387,307236.6746933684,131427.26014676347,32,2030,1432,2
-1012.8167068637617,305.564753188105,-31.055888337569545,286934.94807083893,308176.278575928,138196.29188515228,32,2031,1428,2
-965.0611729671252,299.83991139835103,-29.40979309479215,287615.73360793456,309451.10972955497,145888.82856480783,32,2030,1428,2
-917.5008361739611,294.2975697363911,-25.02575284095427,288108.5293787811,311033.6592078591,154469.9372726947,31,2032,1427,2
-870.4864489856441,289.2802444954726,-17.643721572619967,288453.31838811026,312871.2610106765,163895.66779895427,31,2031,1429,2
-824.3563085375754,285.01623134031803,-7.091950729824677,288671.1791382483,314887.81911713944,174114.71119787768,32,2031,1429,2
-779.4575093877307,281.59279641556395,6.678330970488826,288761.5108899102,316988.1307820648,185070.2942067226,33,2032,1432,2
-736.1683580846537,278.9482848329495,23.555229127594295,288703.54175129026,319065.05693437764,196702.68040357766,31,2031,1428,2
-694.9112833477718,276.8805717001296,43.24324532289335,288461.16144103394,321007.3532218907,208951.2156730718,32,2031,1428,2
-656.1467347275495,275.07718278322153,65.27294727632264,287990.72731551446,322707.0412264101,221754.68299950467,32,2031,1434,2
-620.3478058795164,273.1676335924963,89.03933370020106,287251.694569369,324067.89451245323,235050.46333462553,32,2030,1430,2
-587.9698913661151,270.7797476652909,113.84849421061116,286216.9860658819,325014.17018338054,248773.17596804223,31,2031,1432,2
-559.4263904277844,267.58583674615744,138.96928849407047,284879.1819014508,325496.6622580221,262853.10048362537,32,2031,1428,2
-535.0669891603359,263.3406918714406,163.70607865200603,283251.72430609283,325495.60139428463,277215.4365090293,32,2031,1429,2
-515.1583813257145,257.90505231085797,187.48314511340374,281366.45890779234,325021.4454178561,291781.26259513845,32,2031,1428,2
-499.87611030696195,251.24729286504444,209.9071229383334,279269.41183740884,324113.47029097844,306469.34640431235,32,2032,1430,2
-489.31498627737335,243.42736199510185,230.7903188075127,277015.6379564882,322834.28790285235,321198.32320756005,32,2031,1427,2
-483.5153356158525,234.56805309638392,250.13861843936462,274663.05287935195,321259.52387171285,335889.71010159113,32,2030,1427,2
-482.48848586950726,224.82347904075775,268.1153650461902,272266.98515259824,319466.37849389727,350470.4254771737,32,2032,1429,2
-486.2263069918846,214.35257206770936,284.99000694761986,269877.1605294237,317524.4919788368,364873.6287087311,31,2031,1429,2
-494.6958630118638,203.2952762219551,301.0773485268526,267536.4049100132,315488.8016138706,379038.86029719654,32,2032,1433,2
-507.82971231746245,191.75338217694718,316.6838867378893,265280.2151365257,313394.99478913064,392911.88739868713,31,2033,1427,2
-525.5193615823971,179.78011322228068,332.07265785473135,263137.09197900037,311258.98865069187,406444.08855589834,32,2032,1428,2
-547.612651563146,167.3757910252313,347.4392096781354,261129.29642915967,309079.54839910794,419591.8202679178,32,2031,1427,2
-573.9126885567111,154.48800390653778,362.8950174507522,259273.64899250856,306842.08903797495,432315.5881362696,32,2030,1429,2
-604.177725018769,141.01900856953205,378.46266765750573,257582.27271704242,304523.0057199108,444578.8032607235,32,2032,1428,2
-638.1231426819988,126.84141993221608,394.08180907031544,256063.3016853177,302094.73716504325,456346.6367402194,31,2031,1427,2
-675.4247731137401,111.8178306442779,409.620015275683,254721.47450319256,299530.45551308786,467585.07452619734,32,2030,1432,2
-715.7234288986921,95.82030232180362,424.8868970260873,253558.50168477953,296807.2200415146,478260.22238687234,32,2031,1428,2
-758.631838937767,78.74877856566754,439.6532450163612,252573.2181688806,293908.0162249792,488338.26734018343,32,2031,1428,2
-803.7413865811054,60.54414784596828,453.6702884843781,251761.57318320684,290823.0720615365,497785.7970785885,32,2031,1428,2
-850.6284383039335,41.19063471977127,466.6839759147995,251116.36167932805,287550.2807315445,506570.29680935695,32,2030,1428,2
-898.8640714647147,20.708602778237147,478.4460298002389,250626.61528656047,284094.89588693145,514661.23109754996,32,2031,1430,2
-948.0242920715905,-0.8555462231379378,488.72137352223905,250276.94323949417,280469.04900435754,522031.18502374267,32,2031,1430,2
-997.6975802032769,-23.438819287479916,497.29087158448107,250047.24310434825,276691.3436820034,528656.4737834493,31,2031,1429,2
-1047.4927447696423,-46.972067340766905,503.9529139771625,249912.89651016315,272786.37845597847,534517.5730541939,32,2032,1430,2
-1097.0457156928312,-71.38996178802677,508.52667601682833,249845.31064364378,268784.31986995833,539599.3076983567,32,2030,1429,2
-1146.0224648992776,-96.63859842154663,510.8584084604973,249812.68433259035,264720.5589028899,543890.4570470825,32,2031,1432,2
-1194.1199277021517,-122.68240189541297,510.8311306372866,249780.88656319695,260635.10759711365,547382.9927701311,32,2032,1433,2
-1241.0649156994511,-149.50905638438098,508.37379582699583,249714.17768604562,256571.7974631221,550071.205895872,32,2031,1429,2
-1286.611179931727,-177.1299526912707,503.4652138276861,249575.69798436595,252577.23983643865,551950.7737790038,32,2031,1428,2
-1330.5375480302712,-205.5766363388001,496.13225017707543,249327.9743894043,248699.16617783124,553017.8358111843,32,2031,1428,2
-1372.6465992565095,-234.89370975737833,486.4441676056762,248933.55986796613,244984.57009298896,553268.2125323156,32,2031,1429,3
-1412.7618766796888,-265.1281424098874,474.5027966633573,248355.91875885316,241478.06999178286,552696.8520949872,32,2032,1433,3
-1450.724227961263,-296.316881452885,460.42814688938864,247560.716070405,238220.23321007699,551297.5089189298,32,2031,1428,3
-1486.3873664841515,-328.4760341090509,444.34433803707697,246517.24327606143,235246.23295355332,549062.7304071402,32,2031,1432,3
-1519.6128882031335,-361.5924985626673,426.3697228822272,245199.7939336606,232585.3848935055,545984.2566142911,32,2031,1429,3
-1550.266703867471,-395.61623352768527,406.6101184838349,243589.2579247767,230261.4044653518,542053.7853160378,32,2031,1429,3
-1578.217398589515,-430.4521259068491,385.156848243333,241674.82355424622,228293.190081991,537263.8949351462,32,2031,1428,3
-1603.336119260412,-465.9514011946822,362.0940570794022,239455.19730229359,226695.9316826963,531608.9432219315,32,2032,1432,3
-1625.4982857214434,-501.9026246920835,337.5158282562779,236938.92955692494,225482.23339781375,525085.8735011228,32,2031,1430,3
-1644.5857742074227,-538.0232634802895,311.54739237111966,234143.8982306827,224663.0979805796,517694.9703719439,32,2032,1429,3
-1660.4882741622864,-573.9534350579535,284.36229332273854,231096.42468817055,224248.55364654557,509440.7358699753,32,2032,1428,3
-1673.1067486454428,-609.2545411432258,256.19101121331744,227830.18611400528,224247.60939909294,500332.8995241951,32,2032,1431,3
-1682.3617660000011,-643.4145506835015,227.3214458704638,224384.74082783112,224667.5202848645,490387.3944299082,32,2032,1431,3
-1688.203978690679,-675.8565848966605,198.0943040547585,220804.12604102318,225512.72072819542,479627.35478166305,32,2031,1429,3
-1690.6243420870028,-705.948155299646,168.89322208016577,217135.9620778334,226783.6022088798,468084.03329729213,31,2030,1429,3
-1689.664015730612,-733.0117529587972,140.1272626840096,213430.7570196701,228475.05290840258,455797.3169616357,32,2031,1429,3
-1685.4205074062972,-756.3334024240852,112.21151597090581,209741.32819023202,230575.05341087966,442816.0626488622,32,2030,1429,3
-1678.0469848318658,-775.1692843901297,85.55300162387014,206122.24867750492,233063.77848926993,429198.30462162633,31,2031,1428,3
-1667.7480274506527,-788.7589999704919,60.54147707114544,202628.85442208024,235913.28872158154,415011.01968686044,32,2031,1429,3
-1654.7753336297828,-796.3484056775243,37.54435587906244,199315.75774358146,239087.69261092393,400330.0558586165,32,2031,1430,3
-1639.418333022354,-797.225178311859,16.903471286516947,196234.49976152935,242543.84758859183,385240.701452681,32,2031,1429,3
-1621.984470268616,-790.7733319729498,-1.0707309835330585,193429.91492067295,246232.63751411944,369838.443925112,32,2032,1430,3
-1602.776864834288,-776.5341293042615,-16.10713451310867,190936.500593274,250100.28886180633,354230.07124912826,32,2031,1431,3
-1582.0785877553922,-754.2585185242157,-27.98480375639307,188775.9722803853,254089.30921035897,338535.1524634451,32,2031,1429,3
-1560.1429565506232,-723.9527150492155,-36.54976090701889,186955.43465316226,258139.11264139562,322886.9411252769,31,2031,1431,3
-1537.1903777522107,-685.9118086437874,-41.733931576027175,185465.89446388377,262186.2024820601,307432.21148454805,32,2032,1434,3
-1513.4158867713952,-640.7307214233781,-43.57363953145905,184281.62319339652,266164.3359848002,292328.9077022005,31,2031,1431,3
-1489.0042713697553,-589.2955448138961,-42.22963104544173,183360.60268322323,270005.7167348919,277740.27985698945,32,2030,1430,3
-1464.1425073802407,-532.7665484018569,-38.003786078621715,182646.09915017136,273643.3592000198,263827.45986355393,32,2031,1433,3
-1439.0204292816934,-472.5525655966919,-31.34363102082423,182069.8761875597,277014.7049138645,250742.03126081082,32,2031,1431,3
-1413.8182299921532,-410.268558215736,-22.83129454641835,181557.2931751011,280066.69143696304,238617.7704346492,32,2032,1430,3
-1388.691688049005,-347.6778299017054,-13.161336843172627,181032.72594643675,282760.70737461036,227563.6964197099,32,2032,1429,3
-1363.772301335013,-286.5926306672894,-3.116540417349097,180424.34986422813,285076.43648484343,217660.53402015136,32,2031,1429,3
-1339.1889073353898,-228.69709475399563,6.447506052034459,179669.50514398978,287015.70030267787,208958.69893342713,32,2031,1431,3
-1315.0912941896693,-175.34681665794483,14.62293228368531,178721.99998309926,288606.64156007225,201476.5536323609,32,2032,1430,3
-1291.6430001006022,-127.44446204892684,20.547598610301527,177563.38857441346,289908.05928326416,195199.5943288137,32,2031,1429,3
-1268.983912381269,-85.42809910190725,23.620339522943745,176214.8191358759,291011.6277319735,190082.10648893006,32,2032,1432,3
-1247.2049794072304,-49.34259251255998,23.711052060600093,174737.99906845886,292036.8587263356,186052.99834576386,32,2030,1431,3
-1226.3649424056687,-18.93889641307149,21.18954397236995,173222.6095642663,293118.3473645854,183024.10757652012,32,2031,1429,3
-1206.527190825614,6.227195468900889,16.75894903027071,171768.49462686296,294388.42467349966,180897.9460911301,32,2031,1428,3
-1187.7743403068903,26.706077095068217,11.23326513349644,170468.636022103,295957.4875210745,179574.4550665802,32,2031,1430,3
-1170.1960601102232,43.09434044404716,5.383043004781425,169397.6141306975,297897.90887827735,178956.3267668602,32,2031,1428,3
-1153.87247715743,56.00452759294223,-0.1305969173673201,168608.439289922,300236.53709637193,178952.18186841987,32,2030,1429,0
-1138.8589092139605,66.0451820106971,-4.772962242876359,168134.86174988336,302954.16272056056,179478.2848535932,32,2032,1429,0
-1125.1715100643469,73.80104284486376,-8.135334252978181,167994.78535960216,305988.9435530482,180459.21782704443,32,2031,1431,0
-1112.7822236451798,79.81345478483294,-9.933722765263509,168192.25575409157,309243.1663217645,181827.49756561435,32,2030,1429,0
-1101.626765908244,84.5638289611136,-10.018016061123813,168717.5855646335,312592.96013954503,183522.7054848932,32,2031,1429,0
-1091.6181158595598,88.46366867762119,-8.385266881267631,169546.8903314112,315898.2736972899,185490.8834381723,32,2031,1429,0
-1082.6552332018543,91.8472559112258,-5.177358668734663,170643.0977086429,319012.61945383536,187684.56294563142,32,2030,1433,0
-1074.6250791160774,94.96079318480186,-0.6586618791945463,171959.318564156,321794.90915149637,190063.25418054007,32,2032,1434,0
-1067.4042001284197,97.95248208414695,4.810055195169342,173443.07516720166,324121.3247451255,192593.76710641108,32,2031,1430,0
-1060.866325049498,100.87359421900669,10.795423662690672,175040.26445995865,325894.43237024127,195249.6921464373,32,2030,1429,0
-1054.8962817506113,103.69304637167704,16.822385062982622,176699.26139359854,327050.67959612416,198009.89646007627,32,2031,1431,0
-1049.4013433369162,106.31859956270429,22.411997797894347,178374.5530399802,327565.9305823135,200856.54873198562,32,2031,1429,0
-1044.3105221304506,108.622102656431,27.124643571742016,180029.00414042853,327456.8107090595,203773.16555640489,32,2032,1429,0
-1039.564950660661,110.47107341525879,30.613163025436133,181635.13246029182,326777.6113874665,206742.84978387624,32,2032,1428,0
-1035.1123248842903,111.75888977560317,32.67140340485467,183175.5963124338,325614.04326032184,209747.0984458946,31,2032,1429,0
-1030.912866223713,112.42420515964513,33.25378867714231,184642.53460854807,324073.41730009957,212765.6975177132,32,2031,1431,0
-1026.9507886665003,112.45944793317382,32.46136228433616,186035.8339624604,322270.7148840925,215777.61822680882,30,2032,1430,0
-1023.2389886014766,111.91041195954766,30.508062633234097,187360.90991749163,320314.9852253461,218762.04754189623,32,2031,1431,0
-1019.8103602907662,110.86859995088237,27.678217718452714,188626.2639082773,318300.3460106197,221698.91184412857,32,2030,1429,0
-1016.7005278284762,109.45849277087079,24.27847073969913,189840.860080459,316300.61715825717,224569.09333038537,30,2031,1430,0
-1013.9336621870441,107.82300636167922,20.59568782006675,191012.06895691363,314366.6590941967,227354.60682195352,32,2031,1430,0
-1011.5172944626709,106.10894526030229,16.87067992665507,192144.8190725923,312526.99524889945,230038.88148830525,32,2032,1430,0
-1009.4427336901936,104.45191492943118,13.282164760104989,193241.6151174988,310790.97264621314,232607.30222415403,33,2031,1429,0
-1007.6870713547576,102.96380910833706,9.937143507600252,194302.8488447331,309152.78122191806,235047.7263826878,32,2032,1428,0
-1006.2161985897501,101.72609761137073,6.870493334066253,195327.27417703878,307595.8934524912,237350.6327558422,31,2030,1429,0
-1004.9890414555529,100.78767307371452,4.05371257360942,196312.7192579678,306098.4308919728,239508.99051695492,31,2031,1434,0
-1003.9616556385631,100.1663692444554,1.4090751342601822,197256.79700821766,304638.4236760257,241517.9771719731,32,2031,1430,0
-1003.089863579038,99.8553182813199,-1.1718053485867324,198157.33681483663,303197.8014902168,243374.58923905276,32,2031,1429,0
-1002.331085752477,99.83356688880774,-3.8035411121473706,199012.59147500072,301765.4989966573,245077.24325424255,31,2031,1428,0
-1001.6463258753216,100.07634637425174,-6.5822811084091235,199821.24725449938,300339.51792569616,246625.43902358657,31,2031,1428,0
-1001.0030686362305,100.56119799342255,-9.56772000920905,200582.12273100656,298926.9679720447,248019.54971616037,32,2030,1430,0
-1000.3797405898756,101.27050711774847,-12.77213477806837,201293.60102125249,297542.0290453248,249260.78274456406,32,2032,1429,0
-999.7698798540554,102.19170917631749,-16.157816096865005,201953.07184749996,296202.9744029693,250351.21234404956,31,2030,1430,0
-999.1820962814796,103.31518451100823,-19.646908507477647,202556.66967002905,294928.993474103,251293.755511079,32,2031,1428,0
-998.6346320175736,104.63003248487077,-23.141457373687157,203099.36934522065,293736.82298309455,252092.07514280718,30,2031,1428,0
-998.1481625506802,106.119280293227,-26.54336890830722,203575.29322723765,292638.09134538023,252750.43602909034,32,2031,1434,0
-997.740851332973,107.75632323477065,-29.768157300984413,203978.16448924568,291638.4150954616,253273.56370620112,31,2031,1430,0
-997.4261360188431,109.50302885569276,-32.75472079135977,204301.94197226796,290737.9379669968,253666.56914505805,32,2031,1430,0
-997.2122386135906,111.3096179676139,-35.47131099849265,204541.47639972102,289932.50954031275,253934.93203131369,32,2030,1429,0
-997.1027808869643,113.11708041338476,-37.91495015432837,204693.04439681515,289215.21050487686,254084.49873148336,32,2031,1428,0
-997.0976732067926,114.86204227295997,-40.10477166245393,204754.82310319957,288578.1734933775,254121.47887143638,32,2031,1431,1
-997.193499453549,116.48208852056494,-42.07306057505325,204727.24015254105,288014.2040758428,254052.43543315752,32,2031,1428,1
-997.3836255793306,117.9201484625177,-43.85665493839328,204613.04425240593,287517.68862696004,253884.26989226116,31,2030,1428,1
-997.6590901345655,119.12806395427083,-45.48883588617593,204417.12698933075,287084.87270892505,253624.22128734324,32,2031,1428,1
-998.0104655114293,120.06862932030202,-46.99323900766426,204146.23097051968,286713.75453843724,253279.89319202743,31,2031,1428,1
-998.4298749938268,120.71506885793023,-48.382176855377544,203808.5752279524,286403.64635003556,252859.288588415,32,2031,1429,1
-998.9128595074967,121.04826786019919,-49.658885763544845,203413.40290671107,286154.48165786394,252370.81724655352,32,2032,1434,1
-999.4596939360116,121.0535570989405,-50.82077564997869,202970.61917037822,285966.1764802357,251823.2533185039,32,2031,1428,1
-1000.0752836369636,120.71896960242442,-51.861164932194974,202490.57688933614,285838.2783399614,251225.56431919147,32,2032,1432,1
-1000.7679088581882,120.03528096621368,-52.77000964729629,201983.80127190557,285769.817617583,250586.54625708133,31,2031,1428,1
-1001.5480477769671,118.9972600987594,-53.53613156923689,201460.62396676463,285759.27806067286,249914.4027570417,31,2030,1428,1
-1002.4279994333037,117.60531561330431,-54.151134659592664,200930.93464342202,285804.72549684433,249216.41837688495,31,2031,1428,1
-1003.4220767677443,115.86614652247803,-54.61225402595191,200404.1098211371,285904.04116386344,248498.728826596,31,2032,1429,1
-1004.5467379016654,113.79096462844608,-54.92188980096521,199889.06404911086,286055.1276985069,247766.16123897952,32,2031,1429,1
-1005.8206927423081,111.39099284166258,-55.083880133739946,199394.41309708214,286256.0186551002,247022.03991091816,32,2031,1428,1
-1007.2649412136959,108.67286143577164,-55.0992977541909,198928.65138910039,286504.8595670164,246267.8963258008,32,2032,1427,1
-1008.9016547237358,105.63818429018163,-54.9654244938236,198500.1184742887,286799.7656733461,245503.23705231407,32,2031,1428,1
-1010.7518964891489,102.2884516730152,-54.677850093471754,198116.6906414055,287138.6814668271,244725.55614443592,32,2032,1429,1
-1012.8338764108861,98.63157055193294,-54.23238897196231,197785.40484740835,287519.3949774634,243930.64739672278,30,2030,1429,1
-1015.1624992560274,94.68578083814536,-53.624539840071385,197512.11157659724,287939.7612219028,243113.2040661675,32,2031,1431,1
-1017.7493722763153,90.48035640570085,-52.846489114189794,197301.06357713017,288398.0584248661,242267.65935876474,31,2031,1427,1
-1020.6027603493983,86.05477371420851,-51.88358719787437,197154.47794194162,288893.259781864,241389.08660551137,31,2031,1428,1
-1023.728369728582,81.45659621389429,-50.712749573321055,197072.12903902176,289425.04678578995,240474.01383280344,31,2031,1430,1
-1027.1315877538027,76.73746387157344,-49.30346876842383,197050.94600872055,289993.61107125366,239521.12697405778,32,2030,1427,1
-1030.8200257467918,71.94843647300877,-47.62039781986552,197084.7583653175,290599.39939665695,238531.67947912822,32,2030,1427,1
-1034.8053194482975,67.13616613865449,-45.6266011481886,197164.469407701,291242.8961982597,237509.2957763141,32,2032,1430,1
-1039.1044261470925,62.33986175103018,-43.286984734781576,197278.72527758247,291924.44857038645,236459.13276924804,32,2030,1428,1
-1043.7403757073434,57.58945063489262,-40.570828766962954,197414.8052131245,292644.116116218,235386.82029095682,32,2030,1433,1
-1048.7422709709558,52.905678982037514,-37.45286772692748,197559.55029421145,293401.54946646886,234297.44527690212,32,2032,1429,1
-1054.1450547098086,48.30198395100946,-33.914075703897694,197700.36044088338,294195.89793475217,233194.48506241658,32,2031,1430,1
-1059.9890636938326,43.78766423903789,-29.94358131974377,197826.06626500457,295025.7042107138,232078.90381714096,32,2030,1429,1
-1066.3188671048615,39.372586881304144,-25.541930336419078,197927.56838997197,295888.7597908003,230948.6572607374,31,2030,1428,1
-1073.1821036992576,35.073641979802346,-20.724198537580165,197998.4698372196,296781.9976217272,229798.43835154187,31,2032,1428,1
-1080.6287366934503,30.921228972040623,-15.522539425246292,198035.70582413874,297701.42726066214,228619.5917599492,30,2031,1431,1
-1088.7089892757197,26.962530380521045,-9.988230166350615,198040.10948935986,298642.0049790358,227400.3061212014,31,2032,1428,1
-1097.4692541194142,23.258808380089473,-4.187532432672544,198017.1316594693,299597.5259067682,226126.02219039187,32,2031,1433,1
-1106.9485637301768,19.87817359097315,1.8101417928590893,197977.4955580759,300560.7743109314,224779.90268663238,31,2032,1429,1
-1117.178128895885,16.889503387273145,7.941651508031259,197936.99006258213,301524.06039485947,223343.33373407947,32,2030,1430,1
-1128.1825580276534,14.360748917030978,14.15279804097887,197915.288212345,302479.9828239614,221796.461439243,32,2031,1429,1
-1139.9797919644873,12.360598820713589,20.39890511788948,197934.63981970985,303421.9515114856,220118.67382248977,31,2032,1433,1
-1152.5801773737319,10.961691005673309,26.644765033217396,198018.8821589262,304344.23479514464,218289.00476694852,31,2031,1430,1
-1165.9866964984187,10.243965131849247,32.863491939359314,198192.48664630507,305241.7513617726,216286.5672118607,31,2032,1430,1
-1180.1953871191263,10.296760990363353,39.034838802709125,198479.5751266692,306109.86376191693,214091.0858740327,31,2030,1429,1
-1195.1935958672693,11.2184137881637,45.14274299235766,198903.00539937482,306944.29341113195,211683.55755642135,32,2031,1429,1
-1210.956146249883,13.113193371819554,51.17214526332647,199483.49422054988,307741.1574779776,209047.05270061764,32,2031,1428,1
-1227.441553100443,16.086999104983487,57.10626400526318,200238.9477248805,308497.00776349887,206167.55806754561,31,2030,1428,1
-1244.5901634874529,20.24281935464103,62.925104742369705,201184.1646264012,309208.7853683424,203034.71881591887,32,2031,1431,1
-1262.324367039781,25.67563886657346,68.6049275037517,202330.77286075582,309873.71100814646,199642.43180094843,31,2030,1428,1
-1280.5490275975972,32.4672678486863,74.11791332321113,203687.2176236527,310489.147375085,195989.2957686306,32,2032,1429,1
-1299.1506266050721,40.681876213398645,79.4315530434874,205258.8066430655,311052.45781112945,192078.8269435072,32,2031,1432,1
-1317.9953663000767,50.3621356094843,84.50812590850265,207047.8779020102,311560.8761574076,187919.36566568565,32,2031,1430,1
-1336.926565129277,61.526036235769595,89.30458287265097,209053.97316408067,312011.3871936631,183523.89002212178,32,2031,1429,1
-1355.7610128674833,74.16415543929777,93.77270884551933,211273.90969669505,312400.6412458756,178909.84362538444,32,2030,1428,1
-1374.284359554653,88.2369193660192,97.85977388642556,213701.82605510944,312724.9457739083,174098.84382308883,32,2031,1429,1
-1392.2484964370578,103.67251595733819,101.5107679845939,216329.17822560712,312980.3646319269,169116.4961461455,32,2031,1430,1
-1409.3758079515435,120.36621768609675,104.67359599329231,219144.4684331466,313162.9616466928,163992.52876028555,32,2030,1429,1
-1425.3702403428745,138.1820398285458,107.30503502649066,222132.47807577197,313269.1251516466,158761.03196281893,32,2031,1428,1
-1439.9284979526772,156.95946077840554,109.37298006555956,225273.08985056507,313295.69724665215,153460.7469853675,32,2032,1428,1
-1452.7426606595116,176.52410827081877,110.85524115403561,228540.2361718619,313239.60738061415,148135.5151943499,30,2031,1429,1
-1463.4921317865192,196.69427845182634,111.7369474556265,231901.43382252133,313097.06296922144,142834.91650618412,32,2031,1429,1
-1471.8352380299157,217.27798287977944,112.00588045001945,235317.9128814413,312862.7616382345,137615.16827062477,32,2032,1433,1
-1477.4106182907933,238.06348114495714,111.6477346715978,238745.33069940066,312529.56280595355,132540.09815648373,32,2031,1428,1
-1479.8466671506394,258.809057657219,110.64536549271232,242134.99740784694,312088.7420963114,127681.75835604206,32,2030,1431,1
-1478.7754010771025,279.2367210853249,108.98100965520383,245435.05187773675,311530.7616887065,123120.49906443368,32,2031,1428,1
-1473.8537439215102,299.03524723810636,106.63757286902339,248591.61027959624,310846.6505763332,118944.15568660967,31,2030,1429,1
-1464.7916121059757,317.87538240761035,103.59829200101642,251550.64757569518,310030.06339104456,115245.99129659355,32,2031,1429,1
-1451.3773515495177,335.4300430230495,99.84764045146622,254260.5357713248,309079.53815248405,112122.08013233876,31,2031,1430,1
-1433.4954449894049,351.39220352997273,95.37835321928613,256675.3208438385,308000.8243618899,109668.57829716132,32,2031,1429,1
-1411.1396657846974,365.4911698465438,90.20718476883455,258759.33778065126,306809.6910244172,107978.48511536019,32,2031,1433,1
-1384.4218086358635,377.50643223849147,84.39523609089855,260492.0658717283,305534.6474240245,107138.504982968,32,2030,1465,2
-1353.5683132616118,387.2789800752915,78.06964560764895,261871.99721992854,304218.4181192928,107226.54128798164,32,2031,1433,2
-1318.898933936945,394.72332407296545,71.44744514110559,262919.762365668,302917.7884784828,108309.18281490645,32,2031,1429,2
-1280.7962443463846,399.8379963280632,64.85280919659013,263679.92180055496,301701.7665167625,110439.33043907967,32,2030,1428,2
-1239.6788313516952,402.70992668297333,58.710888223110324,264219.7132065767,300646.6368341739,113654.64844117906,31,2030,1429,2
-1195.9816462548254,403.51162427768173,53.51643010121851,264624.3045787379,299826.79436955863,117976.65917642966,32,2032,1433,2
-1150.146853169824,402.4916279153907,49.7987495499977,264989.994666313,299304.15419002785,123409.99369890934,32,2032,1432,2
-1102.6250957054915,399.9555386118919,48.09908841412466,265414.9811161941,299118.94104087976,129941.52216778445,32,2030,1428,2
-1053.8772607736446,396.23498597134267,48.95045631350869,265986.0430846986,299281.59906180034,137539.3057449368,32,2031,1432,2
-1004.3735369343436,391.6507449353395,52.845848066875895,266764.5604055905,299767.14304585167,146152.01158047558,31,2032,1428,2
-954.5989461138801,386.47513012541367,60.186413559004215,267777.1413643368,300514.5781681085,155710.8710404033,32,2032,1430,2
-905.0713118738431,380.8962671862046,71.21159521043643,269011.97883809987,301431.0237982073,166136.03453449902,31,2032,1428,2
-856.3620801492972,374.9987253239105,85.93948230766033,270420.5053666098,302397.7596182332,177345.19345980155,32,2031,1429,2
-809.0969868853163,368.7742216599008,104.14649501267775,271924.92137454223,303277.33680795034,189259.60694387284,32,2032,1429,2
-763.9244014534925,362.15538992484557,125.38651683953697,273431.46945701883,303923.9377076416,201805.6451875556,31,2030,1429,2
-721.469997704968,355.0501610105225,149.03014989668986,274845.30933326343,304196.71079308685,214913.5517535716,31,2031,1430,2
-682.3000558882147,347.36171870899693,174.31160010875487,276081.11137544067,303971.97907407826,228515.07471523897,32,2031,1429,2
-646.8966121893486,338.9968327985204,200.38725810261684,277068.2080225488,303153.05640663503,242540.88309929648,32,2032,1432,2
-615.64753684469,329.8701933547804,226.4011935714216,277752.8249149951,301679.41344818653,256918.5840442761,32,2031,1430,2
-588.8517197719793,319.90918362925675,251.54073482587174,278098.64681470994,299533.82591734995,271571.5283274831,32,2031,1428,2
-566.7278740339266,309.06218835471117,275.0877328088723,278085.4939364276,296744.35802944907,286418.7427182666,32,2029,1432,2
-549.4237862968548,297.3102111694834,296.4812342943897,277706.4642808761,293380.85825392196,301376.46566711896,31,2031,1429,2
-537.030638642283,284.6761614968657,315.37509764280156,276964.8892993146,289547.88738532696,316360.25019119255,32,2031,1429,2
-529.6005076958047,271.2237145875236,331.65826763166837,275871.7986556048,285373.76611836517,331286.98985394405,32,2030,1428,2
-527.1612497062428,257.0430089138701,345.4286243637824,274443.52686963015,280994.64017996384,346077.59572352655,32,2031,1429,2
-529.7224132068893,242.2308531666136,356.93897436580716,272699.7418883276,276538.3781432579,360659.3990983864,32,2032,1428,2
-537.2682233810058,226.87349825743604,366.5358522020089,270662.4384750787,272113.52595436573,374967.0978433343,32,2030,1431,2
-549.7424429079808,211.03265158055353,374.59717626571484,268355.5908018008,267802.59978448646,388942.9393222778,32,2031,1428,2
-567.0355296740427,194.73665772669477,381.4789727081975,265805.1087801247,263658.97206456796,402536.3391234415,32,2031,1429,2
-588.9792722984874,177.98063539305178,387.48018229409854,263038.9782176974,259708.08753942992,415702.70433805534,32,2031,1429,2
-615.3467721450916,160.73423905231618,392.81765946104196,260087.4081975447,255951.82543235886,428402.06106376584,32,2031,1428,2
-645.8543003569835,142.9528151822354,397.6085845898223,256982.99934965503,252373.67887771688,440597.72741981095,31,2030,1428,2
-680.1647168580234,124.59016445157005,401.8679292765277,253760.9006482242,248944.009163984,452255.0846354766,32,2032,1428,2
-717.8935961066891,105.6126101505371,405.52108365207175,250458.63847285087,245625.99768977024,463340.83853900386,31,2032,1427,2
-758.6158954682988,86.0106729498869,408.4226180940815,247115.46010961605,242381.45876882604,473822.63972592633,32,2031,1432,2
-801.8733950958326,65.80321719687275,410.37654788135194,243770.94043537544,239175.54628122022,483669.09790676634,32,2031,1428,2
-847.1867212582091,45.0338695237665,411.15982996886885,240462.68318711204,235980.89834526292,492850.92646536126,32,2031,1428,2
-894.069011042339,23.764070398464593,410.5449678705245,237223.9959147753,232780.9960711336,501342.9145938302,32,2031,1433,2
-942.038682332078,2.0643297277471317,408.31749942895397,234082.25038377565,229571.8738996403,509125.2866129794,32,2031,1429,2
-990.6344509173755,-19.997276214882298,404.2915068142411,231057.54988813086,226362.0631363942,516183.9600997171,32,2032,1428,2
-1039.4291352355388,-42.36585952630475,398.32308592871874,228161.68274675772,223171.1205004801,522510.2676799362,31,2031,1429,2
-1088.0377809749273,-65.00801353348965,390.31853368984486,225397.76369433713,220027.6005453837,528100.3055658612,32,2032,1428,2
-1136.1219900816764,-87.92138972423427,380.2373233004383,222760.49664827358,216966.86363101657,532953.798658222,32,2030,1431,2
-1183.389625820301,-111.14457421260182,368.0911188978378,220236.8473051623,214028.38847946218,537072.7613741831,32,2031,1432,2
-1229.5890962241317,-134.76328713174797,353.939106115929,217807.0723700795,211253.17818167308,540460.2822603734,32,2030,1430,2
-1274.5026166348823,-158.91094146727156,337.87856557109484,215446.22794423738,208681.86085692767,543119.4594668956,31,2032,1430,2
-1317.9407550237097,-183.76073155982655,320.0318021443395,213126.21490216174,206353.04216592942,545052.3894494688,32,2031,1429,2
-1359.736071634146,-209.5102276011848,300.5349529984676,210817.91256339152,204301.92457944455,546259.2646115614,32,2032,1428,2
-1399.7346893396514,-236.36293883627576,279.5314071322855,208493.0484837462,202559.49108907167,546737.7446674634,32,2031,1429,3
-1437.7876120057483,-264.5092282428322,257.1671840892943,206125.90892125037,201151.9983611747,546482.6848880568,32,2032,1432,3
-1473.7439265657683,-294.1099107617497,233.587250935852,203694.7494048539,200100.7179572067,545486.2098449037,32,2031,1429,3
-1507.4474743893277,-325.2842498064865,208.93369713029807,201182.7139681897,199422.10033866583,543738.116329759,32,2032,1428,3
-1538.7372388234348,-358.0993201171336,183.34566948992511,198578.4590069521,199128.2648838868,541226.5629148982,32,2031,1429,3
-1567.4486575759101,-392.55894541789553,156.96192039471055,195876.6358313265,199227.57992218272,537938.878031959,32,2032,1430,3
-1593.414702812984,-428.593174974388,129.92680932977368,193078.08076506542,199725.26689866028,533862.3893367149,32,2031,1428,3
-1616.469280932236,-466.0496247096327,102.39838866505097,190189.60252012138,200624.06523431028,528985.3847536109,31,2031,1430,3
-1636.4530141985772,-504.68817140149775,74.55623925489357,187223.59846622273,201924.7851725999,523298.27563200786,31,2031,1427,3
-1653.220970642617,-544.1808270794637,46.606986281744,184197.60297369512,203626.57555047885,516794.9124150585,32,2032,1427,3
-1666.653700882825,-584.1164434466368,18.786492395730686,181133.6155380843,205726.97412543654,509473.9548241464,32,2032,1429,3
-1676.6681577889328,-624.0056171063253,-8.64060681215732,178057.42945556276,208221.76988696776,501340.1122739542,31,2030,1433,3
-1683.2242126657636,-663.2842097122162,-35.38462435758259,174998.15438138,211104.62773207962,492404.90957245475,32,2033,1433,3
-1686.3279631378077,-701.3189075652904,-61.139088356118656,171987.72324713098,214366.52144201894,482686.8320439171,32,2031,1428,3
-1686.0331261644837,-737.4144991157985,-85.58978583594069,169060.435335171,217995.07984899438,472211.34613691585,31,2031,1428,3
-1682.440113109321,-770.8234738038759,-108.4211142780901,166252.55553406684,221973.97438578462,461011.07689428586,32,2032,1429,3
-1675.6941945185918,-800.7618653656349,-129.3220298133886,163601.64970174496,226282.43309288347,449125.8921031853,32,2032,1428,3
-1665.9849556035133,-826.4279102047835,-147.99198033760135,161145.7167152981,230894.82064109112,436603.1603551744,32,2032,1429,3
-1653.5468908812122,-847.0205407206929,-164.14509562517708,158922.12118202902,235780.30765973064,423498.29837606696,32,2032,1432,3
-1638.6590758072216,-861.7604135638387,-177.51334096486332,156965.97802431489,240902.76796752532,409875.11187369743,32,2031,1431,3
-1621.6414287027758,-869.9102551459171,-187.85051589632695,155308.22888154833,246220.77379621033,395806.09899435146,32,2031,1432,3
-1602.842577043063,-870.797380023408,-194.94047510290568,153973.73713591244,251687.6645622825,381372.8939939938,32,2031,1428,3
-1582.6179623039352,-863.8509343816826,-198.60848538820542,152979.48218313017,257251.95482326904,366666.53789274715,32,2031,1430,3
-1561.3077901142128,-848.6497609186217,-198.72860156851516,152333.40782348727,262857.9563978428,351788.05865662935,32,2030,1428,3
-1539.2221283879535,-824.96871266016,-195.2276735760573,152033.98318954147,268446.4297002848,336849.5487944759,32,2031,1429,3
-1516.6313150267674,-792.8213723648754,-188.09376261559385,152069.63291803343,273955.1795043268,321974.80024019856,31,2031,1431,3
-1493.7636179109104,-752.4923534412637,-177.39036004202882,152417.75926046152,279319.1718148527,307299.1129376123,32,2031,1432,3
-1470.8150160806529,-704.5490685351245,-163.2742278501014,153043.93869804364,284470.5102294639,292967.400680804,32,2030,1428,3
-1447.9667682034246,-649.8342958507759,-146.015747500378,153901.85438050673,289339.34463777934,279129.3117303185,31,2031,1428,3
-1425.398823083801,-589.4480037756856,-126.01595797484704,154934.1925407168,293855.8397474881,265932.84876432695,31,2032,1429,3
-1403.2895001384866,-524.7182686209611,-103.8117892711932,156074.91964639197,297953.2774941951,253517.6051499797,31,2031,1429,3
-1381.8008926052848,-457.1577596851289,-80.06666046004496,157253.07241972728,301572.5470466458,242006.80801421078,31,2032,1430,3
-1361.0592343097373,-388.4201844013637,-55.55153599452304,158396.63154442332,304666.50728454796,231500.49489678,31,2031,1429,3
-1341.1400370981826,-320.2629206519641,-31.11731763889285,159435.0211262772,307203.0122776138,222072.6064184957,32,2032,1433,3
-1322.0625653621485,-254.49843050581498,-7.6535502141422365,160300.39430576077,309167.50002785586,213770.95075759324,32,2030,1429,3
-1303.8018117620516,-192.91574344134452,13.953108323131898,160928.34345252402,310566.13319524995,206618.39082608215,31,2032,1432,3
-1286.3202713710045,-137.12430484101253,32.853636147766444,161260.6734592722,311431.4553055857,200614.01474984598,31,2030,1429,3
-1269.5909073559121,-88.30022414630696,48.29729355513783,161255.96757775376,311831.4589821011,195732.78255224292,32,2031,1429,3
-1253.585061112699,-46.9677827905755,59.746374214995235,160908.17419357007,311876.8377955924,191924.14136777387,32,2031,1433,3
-1238.2513791754043,-12.986582191888587,67.02753886242856,160261.30889924278,311719.33302164485,189112.33560280854,31,2031,1428,3
-1223.525967604265,14.259407098377746,70.42060311501389,159406.31640567168,311536.6625137883,187200.77372978025,32,2031,1429,3
-1209.3666349028294,35.617972436427124,70.5852718472463,158460.08254403004,311505.58267048444,186079.80892175718,31,2031,1429,3
-1195.7724234608731,51.990115339434304,68.39708261943433,157541.1027756627,311775.50575549866,185634.51579851596,32,2031,1429,0
-1182.769908331296,64.23658151660139,64.81226488440095,156752.71380980173,312453.662447423,185751.2074959027,32,2031,1429,0
-1170.3794917474042,73.14499698377394,60.76000316869561,156172.91344946163,313600.2832037703,186324.0394766622,32,2032,1430,0
-1158.5859090729832,79.43708058982529,57.04686352637035,155849.1637332734,315228.5403558495,187260.57794108242,32,2030,1429,0
