AccX (g),AccY (g),AccZ (g),GyroX (deg/s),GyroY (deg/s),GyroZ (deg/s),Heel ADC0,MidFoot ADC1,Toe ADC2,LABEL
-1651.1388699191423,-912.3739318537126,-467.3425248702509,-5581.45053141182,149516.91009887448,301017.5951498789,2639,2011,1451,4
-1595.65054038416,-835.357152562613,-434.2129805790438,20728.51069574636,147302.7193474368,289335.8240076241,2527,2013,1455,4
-1540.942047556325,-759.3153334409106,-400.6007874140938,46714.99564226068,145180.07925421957,277849.9171347041,2549,2011,1451,4
-1487.7008625265325,-684.8830781699279,-367.028160882848,72138.34796372324,143132.10814517635,266679.77986179513,2357,2015,1454,4
-1436.4710264970072,-612.6327401487315,-334.0082675709377,96775.10567260366,141149.10692302234,255937.75383815824,2392,2025,1452,4
-1387.6521668974601,-543.0878545537514,-301.963482543707,120428.43289537434,139232.41640227076,245723.28047911145,2412,2031,1451,4
-1341.5240161131344,-476.731328968667,-271.1571664323768,142935.46079768983,137395.64922009164,236118.23875499234,2389,2026,1454,4
-1298.2750318864523,-413.99293762677934,-241.69007239011495,164168.78897551817,135661.22091312206,227185.24513471272,2373,2036,1451,4
-1258.0237306833171,-355.2250536505026,-213.55010826495396,184036.05607836673,134052.94840787808,218968.1929464748,2336,2035,1453,4
-1220.832611047696,-300.68824416457977,-186.67186453634596,202479.45573009906,132588.8726877982,211493.7982422716,2334,2043,1452,4
-1186.7160189676986,-250.55045636473608,-160.98286454483622,219473.85572455716,131277.7392909827,204773.59316717795,2422,2047,1450,4
-1155.6436947708123,-204.88817211749077,-136.4401071158353,235023.41430658157,130118.7993100625,198805.96449702085,2439,2047,1452,4
-1127.5437733374,-163.68830351645593,-113.05501217986115,249157.51224628167,129103.37627990115,193578.09319146915,2539,2045,1450,4
-1102.3088985481206,-126.85656938430512,-90.89531632896595,261926.05341283526,128217.74441732182,189067.88953496417,2531,2056,1452,4
-1079.8059352621876,-94.23231446455334,-70.06382194853035,273393.9586538778,127447.06202919788,185246.01449303018,2559,2060,1451,4
-1059.8857129632877,-65.60499722795008,-50.66919575782058,283635.6607562245,126778.93588755376,182077.7607863828,2593,2066,1451,4
-1042.3892407284216,-40.729875499186626,-32.80143555574107,292730.63113305956,126205.08113197591,179524.60856714397,2612,2102,1457,4
-1027.1512012742764,-19.34346881690077,-16.51644252143034,300760.1982990364,125720.73502672472,177545.56393242397,2651,2100,1454,4
-1014.0035289506511,-1.176679538326625,-1.8363349737256882,307805.6571414111,125322.43015410988,176098.20874125825,2649,2099,1455,4
-1002.7792138074442,14.03759863882695,11.236342489433884,313947.3050093097,125005.68248418158,175139.30992872713,2654,2119,1458,4
-993.3148010033912,26.561872740921316,22.70575557241729,319263.8006626635,124764.08642449274,174625.15031550772,2649,2120,1459,4
-985.4512194406072,36.65374892064753,32.58072938624532,323831.6588632308,124589.85466907492,174511.84127177717,2617,2137,1462,4
-979.0340589258915,44.56552482147308,40.88099257532561,327724.7502079509,124474.87624123436,174755.70083931743,2560,2148,1460,4
-973.9145615410268,50.54303172435069,47.64528796392563,331013.6622201848,124411.48560665305,175313.71372733687,2485,2150,1461,4
-969.9513869650386,54.82477032437657,52.93637790900229,333765.04837269004,124392.68376573082,176144.0611766249,2412,2170,1467,4
-967.0122998557707,57.64144822194752,56.84057934536277,336041.1062230868,124411.96191822518,177206.55530439265,2348,2159,1459,4
-964.9752337274449,59.21415450659295,59.46229707514342,337899.276589214,124463.00586850534,178462.90156315497,2242,2175,1464,4
-963.7289201834176,59.750198482456916,60.916696820426424,339392.22430540744,124539.50632718766,179876.91290471688,2143,2167,1461,4
-963.1733237812716,59.43856034422119,61.32400395460114,340567.94813231385,124635.14841236349,181414.66998639403,2035,2183,1464,4
-963.2193708218546,58.44761413669546,60.80585902579367,341469.86813428096,124743.73156723462,183044.57426769115,1909,2190,1465,4
-963.7873776991177,56.92549777159818,59.481884026618665,342136.93951305014,124859.33199365734,184737.37134015912,1828,2198,1466,4
-964.8048004907087,55.00163477180549,57.4663801732957,342603.79748116864,124976.42435763859,186466.16295685203,1739,2228,1630,4
-966.2044610259252,52.78821114695269,54.86600210485062,342900.90844270407,125089.93331196063,188206.43390659807,1661,2234,1628,4
-967.9235596822008,50.38174016853103,51.77800942167776,343054.79051745497,125195.25558703492,189936.17047166193,1556,2254,1635,4
-969.9031948828763,47.86486488283364,48.28901935596848,343088.2968324178,125288.28653383622,191635.9616199508,1435,2248,1628,4
-972.0883358623648,45.30748054111574,44.47505650510176,343020.968079332,125365.46381604573,193288.95128573256,1338,2265,1636,4
-974.4285692280339,42.76646298088379,40.40324252874913,342869.5084438036,125423.8448427187,194880.6948862159,1235,2272,1635,4
-976.8795908641853,40.28488497059851,36.134573849103866,342648.2571842413,125461.19762448952,196398.97103768165,1201,2270,1634,4
-979.4047041233872,37.89285040021998,31.726862337403485,342369.50466297654,125476.05105336054,197833.55272326,1178,2290,1633,4
-981.975383130406,35.61100799274609,27.236915264473076,342043.6886280124,125467.66570648558,199175.96396919093,1076,2275,1635,4
-984.570400278226,33.454850091303,22.721285916883257,341679.5350554946,125435.92903984028,200419.231314773,915,2289,1632,4
-987.1738855791192,31.4368062521805,18.235649567234137,341284.1712630361,125381.21404512005,201557.66802392647,935,2332,1640,4
-989.7731526432317,29.565365020358403,13.833609382122063,340863.2368434403,125304.25668561265,202586.75227629655,851,2358,1637,4
-992.3570178355004,27.8427207060312,9.565911136440102,340420.99982305535,125206.10592849195,203503.0768733638,745,2396,1642,4
-994.9148564811994,26.262362658471545,5.480055336418137,339960.52065461926,125088.1403709565,204304.3170673532,700,2405,1643,4
-997.4361040942973,24.807369906203338,1.6194525181979706,339483.9167426827,124952.08631832783,204989.20506368458,669,2439,1639,4
-999.9099773723246,23.45021598364489,-1.97782142519653,338992.7042867725,124799.9945922641,205557.48664985975,494,2445,1638,4
-1002.3254841874398,22.15446243627467,-5.280049846669564,338488.2063894942,124634.1588604746,206009.8445637525,564,2488,1646,4
-1004.6716177833241,20.877610413027696,-8.262647761547072,337972.03012681036,124456.97532514742,206347.81067281755,402,2523,1645,4
-1006.9372957279826,19.573819269467403,-10.90860846438014,337446.4836601863,124270.80068552673,206573.6810849451,407,2526,1646,4
-1009.1107916263438,18.196219858715114,-13.208535852606047,336914.7926751535,124077.85611132905,206690.44349745737,390,2563,1649,4
-1011.1788896128642,16.69940773881233,-15.160640943118874,336381.1381061234,123880.16218039746,206701.7226592126,421,2555,1649,4
-1013.1262863343743,15.041925258041573,-16.770624270455393,335850.6107345292,123679.50899737526,206611.735801377,377,2554,1650,4
-1014.9358189754786,13.188286806918548,-18.05062793205676,335329.0845809609,123477.4957772783,206425.2429407242,331,2597,1647,4
-1016.5895359674155,11.11046218842674,-19.0172026222673,334822.9574101111,123275.63436553461,206147.48388811262,348,2594,1647,4
-1018.0699981223572,8.788597963075498,-19.689304713053193,334338.83115034434,123075.46335359581,205784.12180684324,346,2629,1652,4
-1019.361880835902,6.210888983864408,-20.08664134800379,333883.2000107835,122878.62159539793,205341.19664919484,284,2685,1651,4
-1020.454416416906,3.372778423454063,-20.22787772066583,333462.1069753526,122686.87636939873,204825.05985911388,226,2693,1651,4
-1021.3435684128394,0.27594407886420536,-20.128903318713586,333080.8310300717,122502.12694403795,204242.30454350647,213,2714,1651,4
-1022.0319318968435,-3.0728074752287546,-19.801528168298557,332743.6942543113,122326.37939244928,203599.7066406335,171,2746,1655,4
-1022.5265078529783,-6.663395107282237,-19.25235145444423,332453.970797817,122161.68448761929,202904.15459455107,157,2748,1651,4
-1022.8366673593307,-10.484799235486584,-18.481679622527892,332213.8776567386,122010.06075913839,202162.5923176173,182,2767,1662,4
-1022.9739643228452,-14.526516216324325,-17.48286750989623,332024.59151280666,121873.39763508996,201381.98963491927,106,2805,1661,4
-1022.9532726707522,-18.778517400105553,-16.242698332132996,331886.20541279047,121753.31694776117,200569.29723891508,155,2850,1663,4
-1022.7937460151359,-23.230210440877027,-14.743031492166041,331797.65383709566,121651.02261523032,199731.39241748574,120,2869,1660,4
-1022.5188066463311,-27.869435948516617,-12.963412956948304,331756.71036636655,121567.13906449146,198875.0101231064,58,2914,1660,4
-1022.1552534653371,-32.68203735463053,-10.884276961116118,331760.0783359752,121501.51166191355,198006.6183309273,84,2923,1669,4
-1021.7320997533698,-37.651618408746835,-8.489765797019759,331803.50727236323,121453.05200026649,197132.29599100014,71,2945,1666,4
-1021.2797911444962,-42.759170065908016,-5.7691541390109995,331881.9088427183,121419.75604860735,196257.6473441714,20,2969,1667,4
-1020.829904769573,-47.98273096625833,-2.7171756685495945,331989.49262771424,121398.89491427198,195387.68358195227,15,2980,1665,4
-1020.4150954968111,-53.29738013710457,0.6660763683839089,332119.89984671253,121387.25044161417,194526.68658021887,0,3004,1662,4
-1020.0690683128443,-58.67551307278381,4.37548610952859,332266.3074785266,121381.29829146787,193678.1087370281,0,3048,1663,4
-1019.8264761409679,-64.0870450414689,8.401007568353762,332421.5266328278,121377.33286559084,192844.4923180938,0,3081,1664,4
-1019.7231910589526,-69.50025704124229,12.725572585282356,332578.17440382723,121371.51817710072,192027.38433856907,0,3089,1671,4
-1019.797704545596,-74.8845090107359,17.318460434698387,332728.9872495785,121359.82819810213,191227.25557589627,3,3092,1678,4
-1020.092577931718,-80.21405032972129,22.127132227490684,332867.239933298,121337.87119371013,190443.50730314423,0,3127,1683,4
-1020.6530429808371,-85.47060436004124,27.075663705148088,332987.2558342715,121300.73855405045,189674.59236248766,0,3125,1687,4
-1021.522757020233,-90.64268399629542,32.07162191838348,333084.9805084353,121243.2433518053,188918.06560015754,0,3141,1705,4
-1022.7408802517895,-95.721950124203,37.01564474216759,333158.4148931112,121160.6325726176,188170.4353628884,0,3133,1720,4
-1024.3434114284642,-100.69948073701475,41.81121178489065,333207.777072073,121049.2860964001,187426.91007960663,0,3150,1723,4
-1026.3667652579227,-105.56309082328232,46.37399772140047,333235.44387048256,120906.97513718547,186681.17472449172,0,3160,1746,4
-1028.849861747004,-110.29512956665278,50.63774862469955,333245.77932490845,120732.70430379348,185925.31136185376,0,3174,1759,4
-1031.8340768689309,-114.87184208159341,54.557314548871936,333244.9450968241,120526.3828316684,185149.9002491074,0,3162,1764,4
-1035.36242512235,-119.26486180424047,58.11143599473832,333240.64807144227,120288.5405301934,184344.22000721382,0,3185,1761,4
-1039.4788621617236,-123.4429776206249,61.30406199165682,333241.769978276,120020.17843178085,183496.47436744793,5,3178,1789,4
-1044.2281267563683,-127.37270900700925,64.1624906230914,333257.92338117573,119722.67532744072,182594.03863651032,0,3198,1791,4
-1049.6553897612018,-131.01819113925245,66.73278652022552,333298.9867900798,119397.6131921435,181623.72603753506,0,3184,1823,4
-1055.8042948786672,-134.34150169510073,69.07435758813479,333374.74149502994,119046.56174694684,180572.0498948254,0,3221,1817,4
-1062.7131139985056,-137.3042000773837,71.25536848858138,333494.6953846723,118670.9635475465,179425.50952000104,0,3216,1831,4
-1070.4105611151087,-139.8692837732077,73.3493133301421,333668.0120180524,118272.15536771051,178170.98417353054,0,3216,1855,4
-1078.914215684534,-142.00173580212564,75.43258607078249,333903.4410561351,117851.4672642629,176796.20891404623,0,3245,1874,4
-1088.2329149525726,-143.66820661582042,77.58243071857272,334209.1965830365,117410.32076403478,175290.21049854715,0,3249,1896,4
-1098.3706613411705,-144.83739092030902,79.87442516892109,334592.77839012694,116950.25861916192,173643.6175839834,0,3247,1907,4
-1109.3294320422224,-145.48039699244922,82.37867915933366,335060.7913790796,116472.80907244033,171848.7273153656,2,3233,1923,4
-1121.1109833721991,-145.5703922380766,85.15432893877792,335618.8329452261,115979.14426177404,169899.30992499556,2,3223,1945,4
-1133.7178366942067,-145.08201316405416,88.24400103408489,336271.4877164899,115469.70231867443,167790.40418775324,9,3215,1969,4
-1147.1530170294473,-143.99022427773775,91.6704017954036,337022.45140886854,114943.94654440279,165518.2543045154,0,3162,1988,4
-1161.4188517558055,-142.26818968525905,95.43506411758989,337874.75608196895,114400.26653564548,163080.29557147395,8,3184,1999,4
-1176.515350982174,-139.8854883299964,99.51851030206066,338830.94089941384,113836.0169540471,160475.19997643292,7,3112,1996,4
-1192.4389055795025,-136.8084593324483,103.88193781238779,339893.0065824489,113247.7183910708,157702.9782637283,0,3115,2015,4
-1209.1815573661086,-133.00226890179965,108.47023110443806,341062.1492692765,112631.3803229184,154764.99603179985,0,3060,2063,4
-1226.7295838845257,-128.43300561033897,113.21506249335472,342338.3956336452,111982.84612615139,151663.93198628046,0,3074,2068,4
-1245.0603955724048,-123.06959706953727,118.03814708045643,343720.28147392644,111298.10590952092,148403.71862433403,0,2923,2124,4
-1264.1383510313105,-116.88618427325505,122.85565669341909,345204.61739070335,110573.59091089274,144989.38911733506,0,2911,2169,4
-1283.910646995132,-109.86469226178502,127.58256410891946,346786.27747151355,109806.42079424518,141426.97808557676,2,2869,2191,4
-1304.3039470543465,-101.99730784795085,132.13551598577192,348457.9704554024,108994.54531873469,137723.58765155138,0,2813,2226,4
-1325.221493059911,-93.28912237178928,136.43481468360585,350210.0155848827,108136.79549354165,133887.4816035792,4,2760,2246,4
-1346.539831657423,-83.76095426173157,140.4058612935234,352030.1347983937,107232.9240661281,129928.24431925504,0,2725,2265,4
-1368.1049494420483,-73.45228307252279,143.9802909953949,353903.2909906718,106283.6808125452,125857.07408328977,13,2707,2247,4
-1389.7284460238213,-62.424263451612866,147.0975395177964,355811.6094340289,105290.91237979046,121687.09225853617,1,2678,2249,4
-1411.1843942221615,-50.76231492162856,149.70681501429107,357734.3197908883,104257.69024400107,117433.6750354058,0,2667,2247,4
-1432.2085077920112,-38.57736376034365,151.7698629643311,359647.682269888,103188.47102065226,113114.81127258218,0,2581,2233,4
-1452.5011913255173,-26.005303539585363,153.26536469989372,361524.9372565588,102089.26455520972,108751.36666708914,0,2487,2220,4
-1471.733029225386,-13.205279827629047,154.1936385425712,363336.19516565267,100967.77371991822,104367.33329368972,0,2467,2231,4
-1489.5517331189951,-0.3564622208434405,154.57902368708028,365048.14320441097,99833.36430130052,99990.1220947893,0,2384,2209,4
-1505.5910860877852,12.347452957036674,154.46860776944712,366623.60126456874,98696.7091759423,95650.7736680719,6,2303,2173,4
-1519.4787720164868,24.703101852899522,153.92697174555508,368021.09504253464,97569.20787599475,91384.17541057228,7,2329,2108,4
-1530.8416013428985,36.4978595823255,153.02528252136275,369194.78706044005,96462.29783894606,87229.39291630965,14,2263,2071,4
-1539.3123223243704,47.50662739992224,151.82456002125252,370095.0664044263,95386.68003484815,83230.0010335031,20,2292,1995,4
-1544.539475928414,57.489129581523514,150.3589823036825,370669.756571978,94351.78601398863,79434.36047361247,7,2191,1960,4
-1546.1994883893785,66.19285572882421,148.62396996257536,370866.29841774056,93365.88616305508,75895.5872129286,22,2206,1959,4
-1544.01122267916,73.36417631370024,146.5684413375066,370635.400336216,92436.79308010144,72670.84660696913,16,2119,1919,4
-1537.749348337443,78.76428396385175,144.09259246868223,369935.30441443017,91572.7955706803,69820.19307992459,16,2070,1748,4
-1527.252518684325,82.18993278514594,141.05616630758405,368735.95945887995,90783.63667885226,67405.01846563834,13,2092,1744,4
-1512.4265902282689,83.50243843412025,137.29828927869465,367023.4111458987,90081.54604200998,65485.769717561496,0,2216,1899,4
-1493.242650737093,82.65817857935365,132.6620755455556,364803.529178098,89482.08584901755,64119.453731165144,0,2295,1879,4
-1469.7261948183673,79.73132934761931,127.01864907712554,362103.67935258086,89004.41951095592,63357.47348675387,19,2226,1841,4
-1441.9372803254737,74.9267963940687,120.28894112353838,358972.45858695824,88670.9275243171,63243.61975242039,16,2226,1801,4
-1409.9527737811252,68.57775417204242,112.45929893179682,355478.51721554,88506.32223860339,63812.704210309064,12,2207,1769,4
-1373.8627492745568,61.114710465108004,103.59112177683726,351708.79027954885,88535.92112727625,65090.70615777937,11,2117,1582,4
-1333.780609744544,53.00602812914249,93.82717690208118,347765.70813989255,88782.66627640855,67096.22195682095,11,2002,1566,4
-1289.8596141471157,44.69639215479154,83.3909000112506,343763.58851316664,89263.69275517936,69842.01924487267,3,1979,1549,4
-1242.3115941965052,36.56334326552754,72.57204982632591,339823.7542776416,89987.40797092312,73335.80667726738,6,1943,1553,4
-1191.4258311270223,28.88738300699248,61.69897829831922,336067.43497878226,90951.20213644787,77580.21827168073,11,1942,1544,4
-1137.5820876950083,21.83514426458989,51.10836809164556,332608.3007999839,92140.29362750522,82572.2608750978,8,1930,1527,4
-1081.2478923355338,15.463922655511993,41.11816698742271,329546.53941890993,93528.74659182149,88302.51824857802,8,1956,1498,4
-1022.9587493936687,9.745993068458084,32.00132058305424,326964.021872481,95082.75992137085,94754.50073028017,10,1996,1466,4
-963.2950199595616,4.599737487911024,23.966637166307773,324921.1320259444,96764.73130239827,101904.27472357817,1,1994,1468,4
-902.8636612564839,-0.07985667678141911,17.15477416567964,323456.3857715885,98536.93362633682,109720.59577767107,0,2010,1451,4
-842.2799630918794,-4.388689614471073,11.645968422312936,322588.1190854396,100364.84535923832,118165.7984411628,0,2008,1454,4
-782.1506125430252,-8.38340553684056,7.472089491878213,322316.8514123678,102219.49690726964,127196.93830199953,0,2008,1459,4
-723.0600319414227,-12.060944864291477,4.629878238820994,322627.9429826762,104077.98342266142,136767.04098089156,0,2013,1453,4
-665.5558722278981,-15.346456879082028,3.0935819568663123,323494.7169424868,105922.54431157357,146826.97156625055,0,2012,1452,4
-610.1377684627602,-18.09025755212027,2.8235581907564216,324881.36223292147,107739.12646406832,157327.28795587536,0,2013,1450,4
-557.253324541143,-20.08240343951499,3.771079439443871,326745.0338977847,109516.0240753085,168219.52073954712,0,2012,1450,4
-507.29613331733566,-21.08748252750742,5.8819037075539455,329037.45273433236,111242.84934771273,179457.44648225495,0,2013,1450,4
-460.605321465371,-20.885646679750757,9.09682705080045,331705.8640238,112909.97822307333,190998.0193395981,0,2012,1453,4
-417.47146137452216,-19.307253866002586,13.34577573003118,334693.111380708,114508.58331268046,202801.44695828552,15,2012,1451,4
-378.1486697071928,-16.260828868575434,18.537057773899043,337937.3693087093,116031.22467658186,214830.93621189785,12,2011,1453,4
-342.8670189594004,-11.75009184659022,24.548537351739725,341372.16733330506,117472.702276382,227052.13255743185,1,2010,1451,4
-311.83857950894816,-5.872655918214775,31.225866522227722,344927.29361852666,118830.97950835398,239432.07964836928,0,2007,1454,4
-285.2567878628231,1.1964073120630894,38.38730537530229,348530.88649010134,120108.23975777054,251938.22701515534,0,2011,1452,4
-263.2945979606053,9.225483685720759,45.83307468050247,352111.93334933836,121311.78814751456,264537.64712087245,0,2011,1453,4
-246.10323514430937,17.946079180126866,53.35998849966986,355602.66846866155,122454.31858148573,277196.5189705718,0,2010,1451,4
-233.80968181029962,27.07110282559763,60.780899268681225,358941.23529184813,123553.41702819128,289880.18430944666,0,2010,1453,4
-226.51242083675618,36.3111292585261,67.94487347390297,362074.0422530983,124630.36866246609,302553.31720504264,0,2012,1451,4
-224.2766550697481,45.38831242913401,74.75307541865017,364957.00869605347,125708.32334082236,315179.7313621538,0,2010,1451,4
-227.13119120316352,54.046538355997164,81.16372279171306,367555.99406971614,126810.08188496772,327722.1045350398,0,2010,1451,4
-235.06705474419834,62.05649645369965,87.18144909376659,369846.7552315531,127955.91427741031,340142.1340881608,0,2011,1451,4
-248.0351927280512,69.21765153269313,92.83560794590807,371814.50172104774,129161.69024339896,352401.3532844654,0,2010,1452,4
-265.9425702062918,75.35831669295113,98.15982361592343,373453.26279281155,130437.73720978989,364461.9241030629,0,2010,1454,4
-288.6490410007176,80.33356214807539,103.18093658084203,374765.1952731413,131788.85693170896,376287.12426144857,0,2010,1451,4
-315.96682028238337,84.02189393345398,107.9156111351048,375759.83078172186,133215.32309130367,387842.173064991,0,2008,1451,4
-347.6623480784539,86.32215296040988,112.37153394789966,376453.3263438062,134714.1409017676,399094.9327055394,0,2009,1451,4
-383.46184214440945,87.15154433947012,116.55321325922242,376867.62174251874,136280.16789230454,410015.7548329383,0,2009,1451,4
-423.06129916627634,86.44556854531925,120.4699801056399,377029.2439392882,137907.1526492562,420576.90288990963,0,2009,1452,4
-466.135820948384,84.15968474196374,124.13973703481993,376967.9004623458,139588.43905372752,430751.8492709701,0,2007,1454,4
-512.345170282496,80.27076534780196,127.5845026308217,376715.11138203327,141317.05752319627,440514.68196488335,0,2009,1452,4
-561.3380887742462,74.77709281142708,130.8212425994594,376302.85933163954,143085.4543879081,449840.105507225,0,2008,1451,4
-612.7545654753703,67.69710436313021,133.8552664154511,375762.443517529,144885.25688252386,458703.6547640376,0,2009,1453,4
-666.2257832457083,59.06555989356998,136.6798145851959,375123.6050496764,146707.44650780008,467081.6839132702,0,2008,1453,4
-721.3761173141668,48.9257906825575,139.27950602755197,374413.6487658451,148543.1004279551,474951.45378912863,0,2008,1454,4
-777.8269435273551,37.32074000125057,141.63381785988537,373656.6604442481,150384.27543081474,482291.23364555277,0,2008,1452,4
-835.2000069316047,24.286013624999523,143.7202256645976,372873.0820836755,152224.59512629357,489080.2193262157,0,2009,1453,4
-893.1216764547496,9.845735045709109,145.51873526811443,372079.5670557262,154059.56332106973,495298.5616050169,0,2009,1451,4
-951.2260510470671,-5.987770970619861,147.0165385703397,371288.993653198,155886.61308139286,500927.3851964725,0,2007,1454,4
-1009.1550290345592,-23.21037790280762,148.21086942557562,370510.6648327005,157704.83202458924,505948.59718931123,0,2005,1455,4
-1066.5586052494955,-41.82063781541078,149.1123244801582,369750.7578934962,159514.50150531446,510344.7710523802,0,2005,1455,4
-1123.0955930975435,-61.814726950760814,149.7505234371992,369012.90916932473,161316.62117934646,514099.12583092524,0,2006,1454,4
-1178.4339494999758,-83.1839860174075,150.18040567486935,368298.6198457561,163112.45638008032,517195.4629777689,0,2008,1452,4
-1232.2530516127,-105.91509641958925,150.48756310086043,367607.33844748564,164903.05427124922,519618.1836352426,0,2007,1452,4
-1284.2462022920297,-129.99064518340344,150.79086993163156,366936.37050082634,166688.67469921953,521352.3301146053,0,2009,1451,4
-1334.1210095994459,-155.38947893978045,151.23935184534363,366280.8169659147,168468.06035781212,522383.5380512926,0,2007,1454,4
-1381.599888141996,-182.08765389912494,152.00294808397982,365633.6430301787,170237.53269996314,522698.02333309094,0,2009,1451,3
-1426.4205975632376,-210.05831282408528,153.26103130130377,364985.89495896705,171990.1346801386,522282.64220876154,0,2008,1452,3
-1468.3360341802259,-239.26807102611227,155.19065809287542,364327.0861396377,173715.08077521136,521124.9581497887,0,2008,1451,3
-1507.1154873288313,-269.66990413825135,157.954151585869,363645.7621611249,175397.54556626471,519213.36257230956,0,2005,1454,3
-1542.5465831942643,-301.1941788374811,161.68889794277743,362930.1131337563,177018.67045190738,516537.31770851166,0,2009,1451,3
-1574.4365596612563,-333.7395511346878,166.50173283132585,362168.48521662224,178555.80197624175,513087.7105132189,0,2009,1451,3
-1602.614684671918,-367.16481911298564,172.46630932280743,361349.78232761,179983.04803751595,508857.30550043314,0,2006,1454,3
-1626.935444112699,-401.2822748025558,179.62212604063762,360463.7251198462,181271.99794231207,503841.3258039157,0,2006,1456,3
-1647.2821204506577,-435.85385795053236,187.97560150833607,359500.83790866286,182392.61315309317,498038.1018988856,0,2010,1450,3
-1663.572760849846,-470.59167846616117,197.50331999516868,358452.14512234967,183314.49713645154,491449.68212063034,0,2006,1455,3
-1675.767073129852,-505.162034747943,208.15558629082187,357308.7705240837,184008.21397113625,484082.4548992772,0,2011,1455,3
-1683.871762941567,-539.1933639746306,219.8576835044184,356061.54311542894,184446.29002338584,475947.71704894525,0,2005,1455,3
-1687.9444942550535,-572.2899888961169,232.50808131698437,354700.5657327764,184604.05340702663,467062.0182553659,0,1996,1462,3
-1688.0955743443837,-604.0458487917124,245.97377153206975,353214.92637274985,184460.32456032938,457447.4969841602,0,1985,1471,3
-1684.485101657222,-634.0505331967239,260.08351625248446,351592.89154528984,183997.90249210506,447132.26444533287,0,1984,1473,3
-1677.31499097693,-661.8882000617228,274.62261232749296,349822.69736216665,183204.07488474704,436150.56427061616,0,1978,1474,3
-1666.8199791397003,-687.1328266025183,289.33368069577335,347893.71491757286,182071.25546016992,424543.0019701475,0,1973,1484,3
-1653.2648249815275,-709.3432426550546,303.9254543116918,345797.65852801665,180597.6873251991,412356.99002757703,0,1968,1485,3
-1636.9504782724198,-728.0621080847067,318.08674055659145,343529.5698254819,178788.1339769264,399646.9552264031,0,1962,1492,3
-1618.2234840161443,-742.8201337217378,331.4986977518458,341088.3499938261,176654.41161157363,386474.4135360015,0,1961,1494,3
-1597.4767221993295,-753.1470222326511,343.8447280349451,338476.7328763369,174215.7963328432,372907.837876806,0,1961,1495,3
-1575.1342865939266,-758.5907142759932,354.8234757242921,335700.8289967534,171499.54989248788,359021.82788683864,0,1962,1491,3
-1551.630152705409,-758.7400718992667,364.1673002250467,332769.7132277476,168541.67338321608,344896.3709035701,0,1969,1485,3
-1527.3937194956225,-753.2455913636448,371.6705967845684,329695.35727652186,165387.46925351646,330616.8448055403,0,1977,1480,3
-1502.839040986664,-741.8345497129566,377.22677436587173,326492.527392872,162091.08556908948,316273.98770718975,0,1992,1471,3
-1478.353172149494,-724.3192392652604,380.8524707448345,323178.3027255075,158713.5141584747,301963.5226638421,0,1992,1466,3
-1454.2875578505764,-700.6113600976164,382.67585151026924,319771.0912509741,155318.4150778031,287785.0471204415,0,1990,1467,3
-1430.9503881523465,-670.7552602657107,382.8919492677739,316289.06496710726,151965.90823710058,273839.57680427725,0,1993,1466,3
-1408.5976365893073,-634.9679369182519,381.710456404374,312748.6799180009,148707.055370583,260227.12023226454,0,1992,1465,3
-1387.4278705080696,-593.6665602415446,379.3116921788656,309164.2043660494,145581.4160175767,247045.26025695086,0,1995,1464,3
-1367.5820242246666,-547.4799900866269,375.811574117888,305548.42172343616,142617.12869248845,234387.5687412821,0,1996,1463,3
-1349.1438085282873,-497.24782266913246,371.2437786980542,301914.06912466505,139832.43038111858,222341.59536121742,0,2000,1463,3
-1332.136589598523,-444.0031244384314,365.5683324640728,298275.3293516086,137238.60746383315,210986.48261230573,0,2010,1456,3
-1316.5168134513754,-388.93730961229306,358.7006279019717,294648.8688132218,134844.1074744763,200389.7033371615,3,2009,1453,3
-1302.1706251423595,-333.36085334815806,350.54393448325243,291054.30477195315,132658.09675156546,190604.36607324128,140,2010,1452,3
-1288.9199711003512,-278.6635388377508,341.0171327310867,287514.04055082926,130691.83355090785,181668.5900441517,429,2010,1455,3
-1276.5361065070874,-226.26319842570075,330.08320465934315,284052.53602550575,128958.15998246077,173606.12366264302,1042,2010,1452,3
-1264.755898992712,-177.543834642663,317.773313991764,280695.43813450576,127470.34905514024,166427.20853124515,1750,2011,1450,3
-1253.3059024547197,-133.7603332805277,304.1838032855832,277468.87008815445,126240.29252850528,160129.19086449855,2167,2010,1452,3
-1241.938003251568,-95.87640204200864,289.43602090697385,274399.12499271566,125275.15446662746,154696.30008671436,2248,2011,1451,3
-1230.4599057472924,-64.38972900086408,273.62766407245965,271514.0529805993,124573.28271263072,150098.80765517143,2391,2013,1449,3
-1218.7427554184605,-39.25519473664775,256.8277744169598,268847.97305599327,124121.63095309032,146292.66013981888,2422,2011,1451,3
-1206.7161544692315,-19.95647003385299,239.13869990553889,266449.02618966275,123896.1499283885,143220.81404312223,2455,2012,1452,3
-1194.3690994513295,-5.678462546710245,220.7848796789178,264382.98788685375,123864.9527832105,140816.90061888605,2461,2008,1452,3
-1181.754071292033,4.499566187844232,202.15448188778967,262726.3136957294,123992.77213838635,139011.41407584582,2379,2009,1451,3
-1168.983328770189,11.439873930641413,183.74832488169224,261548.70605038252,124244.42071980209,137739.41761823464,2240,2011,1448,3
-1156.2159353712134,15.851418303578619,166.06434516675284,260896.37475696218,124585.54504645967,136946.21168064867,2149,2009,1452,3
-1143.6342786130606,18.28070361418967,149.50259404699378,260786.04144162987,124982.07127919831,136588.35630289963,2138,2008,1452,0
-1131.411362250309,19.153590230210646,134.34105657456308,261209.3198154598,125401.4365332504,136630.82629536925,2155,2006,1455,0
-1119.6854495339269,18.82495808105632,120.75722885271153,262141.5577784874,125815.85034025207,137042.27838278832,2130,2016,1453,0
-1108.5537773071426,17.613181775231165,108.85261914970687,263549.0258652684,126204.93875641654,137790.97673063388,2204,2029,1454,0
-1098.0747359627464,15.814638655558042,98.66408070871249,265391.9408793033,126555.90330250075,138843.31496007412,2289,2028,1456,0
-1088.2665928173776,13.702986113493493,90.1664112953839,267625.24194321566,126861.78712337904,140164.58411084663,2373,2024,1453,0
-1079.1063611256786,11.519369889312525,83.2733467857398,270199.0847722497,127119.60295300002,141720.5265717733,2422,2028,1454,0
-1070.5403374789355,9.460159319038903,77.84216177795236,273059.7077835275,127329.345778288,143478.7718742444,2443,2035,1458,0
-1062.5081186800132,7.667982700079362,73.68623272487177,276150.99315330177,127493.75252206379,145409.91673113962,2489,2033,1454,0
-1054.9655147786634,6.229944176789953,70.5940398769308,279416.33778363926,127618.2826075027,147487.92303435763,2516,2038,1455,0
-1047.893088468073,5.183487119383045,68.34978635491116,282800.62932370283,127710.69937239283,149689.52732381556,2538,2041,1454,0
-1041.293113969052,4.526403991223731,66.75207624553414,286252.58306299994,127779.82083105347,151992.99323075442,2566,2039,1451,0
-1035.1837420139009,4.22628464091808,65.6255953500293,289726.75682097755,127833.85386610293,154376.94948269066,2560,2038,1450,0
-1029.591468833116,4.228759885781167,64.8236409425835,293184.504159146,127879.03333946884,156819.8544953449,2588,2045,1450,0
-1024.5399247310336,4.466889237932426,64.22539338586132,296594.1683962653,127918.77746358518,159300.10274921998,2570,2056,1451,0
-1020.0391948011867,4.8704985489551404,63.73243270500124,299930.7878756959,127953.40950157675,161796.3994671469,2575,2054,1454,0
-1016.0809558796275,5.373579903281489,63.267110137316635,303175.22863792616,127980.61165987415,164288.2167945125,2583,2056,1453,0
-1012.6392272860988,5.920557854518543,62.77323769710289,306312.8607586588,127996.53023577816,166756.39805851865,2529,2055,1451,0
-1009.6743541013759,6.470779490637009,62.21773341352213,309332.13379727013,127997.03270064136,169183.69488571302,2481,2047,1451,0
-1007.1392240654981,6.999606490634477,61.59095824570144,312223.32639238844,127978.72123668069,171555.02310296663,2436,2062,1454,0
-1004.9867486461566,7.4965997092615355,60.903797167215,314977.6065801279,127939.61142563561,173857.5565953971,2325,2056,1453,0
-1003.175699117999,7.962528734062038,60.18144663508028,317586.5675942883,127879.29285530491,176080.6611640969,2268,2058,1460,0
-1001.672617871682,8.405664142050805,59.454295011175574,320042.20573394775,127798.56385874236,178215.60859222966,2169,2052,1453,0
-1000.4508979570705,8.836415571506706,58.74700266848926,322337.21326136356,127698.81180844539,180255.2646675121,2028,2047,1452,0
-999.4893407555069,9.261264915752687,58.070207666182384,324465.5491362315,127581.33872113877,182193.9304334926,1923,2076,1455,0
-998.7710945894048,9.678416175176025,57.41836009378327,326423.0011680461,127446.86878439087,184027.25947017947,1861,2064,1449,0
-998.2827379506654,10.075803639335263,56.772732533645446,328207.5357925744,127295.39260480569,185752.14250978563,1718,2065,1449,0
-998.0134039566345,10.431258186438193,56.10705051797784,329819.5961022466,127126.20769942141,187366.5814160703,1625,2075,1454,0
-997.9539222274716,10.715396536897028,55.39324294828436,331262.3307690747,126937.97839405577,188869.54833376626,1497,2093,1456,0
-998.0958199559071,10.897398548698424,54.606233111308995,332541.5796913122,126728.7918581214,190260.8000216545,1436,2081,1451,0
-998.4303716640087,10.951964644731136,53.728230962153916,333665.62245158135,126496.26468119684,191540.67874838648,1335,2090,1450,0
-998.9479405364683,10.864688040380386,52.75211657739922,334644.74549985974,126237.72358999676,192709.91009260344,1206,2090,1451,0
-999.6375597204046,10.634320453547485,51.683222082564626,335490.57317291514,125950.47224312132,193769.40601635727,1120,2096,1453,0
-1000.4867824754759,10.272335761819875,50.53980791055929,336215.13911917084,125632.15213116798,194720.1244181182,1055,2105,1453,0
-1001.4820177375516,9.800648713381939,49.35240623395381,336829.93564043444,125281.09952303297,195562.9981314805,931,2112,1452,0
-1002.6093805008354,9.247125018980524,48.16126464924047,337345.1849364319,124896.5703261659,196298.936197538,890,2112,1451,0
-1003.8554707937185,8.638905386477196,47.01146883806992,337769.33851681376,124478.8172620783,196928.91288760747,879,2103,1449,0
-1005.207200571832,7.9960282973354095,45.947543403497946,338108.8328466073,124029.07291049247,197454.08125764123,784,2140,1456,0
-1006.6504572189685,7.3271001416535855,45.009476360061726,338368.2154292672,123549.47484962063,197875.86486717244,720,2138,1463,0
-1008.1683562958625,6.626406451051897,44.23003767993039,338550.5966135738,123042.95627869308,198196.0677020097,676,2130,1468,0
-1009.7402246743663,5.872783992503959,43.633115869303836,338658.1716747202,122513.14059370517,198416.98346923408,619,2119,1465,0
-1011.3420005390487,5.031955265514528,43.233159445621936,338692.66485155065,121964.2098337593,198541.4530211043,544,2107,1470,0
-1012.947693182194,4.062356460510445,43.03523631275891,338655.7526690503,121400.69283369792,198572.88372152412,532,2122,1463,1
-1014.5307562749615,2.921413273246531,43.03558744655635,338549.42019931093,120827.26329768165,198515.2432775147,493,2125,1491,1
-1016.064657116136,1.5694480682790712,43.2234100518965,338376.1269006012,120248.64285957806,198373.02399981846,407,2108,1486,1
-1017.5229018439445,-0.028491772578639753,43.58385741813497,338138.7858219933,119669.57230142129,198151.21225702387,354,2123,1487,1
-1018.8790443994097,-1.901965671749504,44.10087856515387,337840.64909289323,119094.82253107592,197855.30505741158,315,2138,1483,1
-1020.1072070231334,-4.076066215732637,44.75924457430808,337485.1991029016,118529.23423515067,197491.3590737072,282,2148,1489,1
-1021.1833320925796,-6.5739470098877035,45.54611289728063,337076.10138262616,117977.73129678133,197066.02874439952,242,2156,1513,1
-1022.0866218260744,-9.419339896750182,46.45205241302216,336617.2437601095,117445.29123658038,196586.5781336256,224,2175,1660,1
-1022.8008897173945,-12.637382886017047,47.47139800001662,336112.8818878473,116936.85779606628,196060.83844193144,191,2185,1663,1
-1023.3162162451467,-16.253472489184198,48.60189644387987,335567.8741468611,116457.14519393053,195497.07375171254,153,2193,1676,1
-1023.6305640747876,-20.290710854681773,49.84344412093529,334987.92671508965,116010.3817606257,194903.78774985648,136,2209,1667,1
-1023.7501096784689,-24.766357545888663,51.19595723774101,334379.7417988396,115600.05917361446,194289.4647515809,63,2211,1688,1
-1023.6876090170787,-29.687883825812335,52.656937146924385,333751.0139183386,115228.67609276378,193662.19826351036,33,2265,1675,1
-1023.4598001902102,-35.04989797538602,54.21978862124024,333110.2990782351,114897.54321558539,193029.33697335562,47,2273,1699,1
-1023.0857683830061,-40.83275700467955,55.87365488197141,332466.72775815683,114606.75186566681,192397.28093336525,3,2288,1701,1
-1022.5870729426703,-47.00267863724974,57.60458338867018,331829.5154083394,114355.29504667761,191771.3652451269,16,2299,1720,1
-1021.9887355284006,-53.51288920474144,59.39712763626113,331207.4257684398,114141.26056496818,191155.78680669956,29,2282,1749,1
-1021.3196521610162,-60.30601537563827,61.235999542470466,330608.31673121155,113962.0415944428,190553.58541064485,10,2275,1779,1
-1020.6119552101667,-67.31791690419753,63.10832443990661,330038.73036156205,113814.5575738101,189966.64735777245,0,2267,1789,1
-1019.9000956661707,-74.48132563030026,65.00635444475581,329503.60559539986,113695.46020021895,189395.72250104413,0,2309,1785,1
-1019.2202011821354,-81.72757710686288,66.93001346224648,329006.197552146,113601.28978760367,188840.46932102487,0,2294,1824,1
-1018.6093277290697,-88.98651601498068,68.8892618285142,328548.11641109444,113528.57848655545,188299.54168321466,0,2248,1853,1
-1018.1044901065983,-96.18586188606406,70.90570469446912,328129.3888280006,113473.88304953105,187770.73886803372,0,2202,1899,1
-1017.742025745855,-103.2520984955552,73.01262521559302,327748.4850724433,113433.73004870387,187251.21140782526,0,2221,1874,1
-1017.5574713675452,-110.11300941437214,75.2537592135078,327402.3032157091,113404.49817295138,186737.66415525117,0,2194,1903,1
-1017.5865605445728,-116.70067032913886,77.67954589740604,327086.1657474726,113382.24492040407,186226.48056908094,0,2115,1970,1
-1017.8688873868606,-122.9561984680682,80.33755238266642,326793.86466891586,113362.46678022307,185713.76656708465,0,2198,1913,1
-1018.4520059964328,-128.83571090303457,83.259110497715,326517.8387933942,113339.7553787537,185195.3945985015,0,2150,1971,1
-1019.3898119641693,-134.31284489318372,86.4497209926328,326249.75774832885,113307.33889095315,184667.04031803028,0,2107,1957,1
-1020.7352226703366,-139.37616258960117,89.8869813204678,325981.6170504693,113256.84822382512,184124.08038047713,0,2114,1998,1
-1022.5344417519466,-144.02480625884516,93.52432244997662,325706.8290749189,113178.73932965413,183561.3537257232,0,2114,2015,1
-1024.82651870874,-148.2655797502794,97.29848406388551,325420.7167008364,113063.34617990561,182972.9530119737,0,2073,1897,1
-1027.6453690605238,-152.11116218108768,101.1389567952129,325120.4618506663,112902.16899382409,182352.130246562,0,2052,1913,1
-1031.0217028725056,-155.5783949696956,104.97592332119504,324804.9468542432,112688.81939150048,181691.31882687417,0,1946,1997,1
-1034.9859519428041,-158.68705469407044,108.74482494637506,324474.7612498356,112419.22734864164,180982.2586815448,0,1875,2042,1
-1039.5719076255677,-161.45842554241764,112.38905413997327,324132.3391189262,112091.24598971149,180216.15604971425,0,1778,2096,1
-1044.8175147252996,-163.9129711291692,115.86144254926329,323782.0703152389,111704.09156223065,179383.82528436618,0,1730,2135,1
-1050.7614887884565,-166.06914963609577,119.12436903146101,323430.3049312417,111257.95505504524,178475.84549979406,1,1643,2177,1
-1057.438426503397,-167.94472014780342,122.14966249820459,323085.2524041405,110753.86345073083,177482.78883529906,0,1626,2196,1
-1064.8756277987272,-169.55852798062713,124.91932508247724,322756.8167917767,110193.74726451204,176395.5101193162,0,1650,2222,1
-1073.092425812802,-170.9303954430527,127.42701464780427,322456.3643758069,109580.61976144028,175205.41934372013,0,1570,2253,1
-1082.1006936076813,-172.0791407775002,129.67992887673105,322196.4034360431,108918.72355831074,173904.67306563605,0,1506,2345,1
-1091.9057335765813,-173.01957804221595,131.70074402332733,321990.25999697007,108213.53521686146,172486.2879618945,0,1429,2382,1
-1102.5077209423564,-173.75868164710528,133.5290041481373,321851.7954311775,107471.58290128846,170944.21218119675,0,1407,2433,1
-1113.9029771379924,-174.2921310329433,135.22059031656582,321795.09775172954,106700.11086082985,169273.37986525378,0,1375,2423,1
-1126.084095616283,-174.60316215319682,136.8431863030015,321834.0635071937,105906.6008078568,167469.72291280614,0,1237,2432,1
-1139.0391350612767,-174.66379374383044,138.46764899238076,321981.86375882634,105098.16156968854,165530.1138939757,0,1195,2478,1
-1152.7502699084591,-174.43702616543183,140.15917902136275,322250.4575587204,104281.02073340285,163452.34013939762,0,1164,2492,1
-1167.192222173189,-173.87965711636897,141.97163766032156,322650.2605387738,103460.33798833485,161235.16499346134,0,1085,2522,1
-1182.330960519305,-172.9461903990594,143.94446108365966,323189.8625329623,102640.28261192367,158878.38132733744,0,1083,2527,1
-1198.1225516352902,-171.59300316948168,146.10111660610474,323875.7482018599,101824.25238781767,156382.85425087734,0,1058,2543,1
-1214.5123319790466,-169.78158949177958,148.44918631484904,324712.1111821785,101015.15432193162,153750.5579629604,0,971,2583,1
-1231.4350118226305,-167.48070177115414,150.98176515212202,325700.80257587106,100215.66205808321,150984.53324173018,0,919,2621,1
-1248.814986988596,-164.66726420977218,153.67899358473596,326841.3549856176,99428.36828236366,148088.85538736093,0,825,2635,1
-1266.5657343019864,-161.326145205332,156.50849453631957,328131.0413748199,98655.75164471932,145068.66750032094,0,789,2653,1
-1284.5882534674638,-157.44973077622828,159.42438410475683,329564.9702382055,97899.96703049357,141930.17699664854,0,721,2676,1
-1302.7686811706108,-153.03853393935086,162.36551908763298,331136.1539598086,97162.64117026668,138680.69086157388,0,663,2713,1
-1320.975179188904,-148.10327000239374,165.25388828624773,332835.5013299465,96444.83008859576,135328.80872759916,0,643,2728,1
-1339.0544425321248,-142.6675272586636,167.9937900642209,334651.7802317755,95747.13616014876,131884.70683401555,1,604,2740,1
-1356.8283649462207,-136.77020048544688,170.47300443566633,336571.6437506893,95070.01920781792,128360.38262380875,0,570,2748,1
-1374.0915107949709,-130.46790951824357,172.56693056067112,338579.77082634816,94414.33897852521,124769.79286999605,0,559,2734,1
-1390.6096191635907,-123.83743447280044,174.14430756710772,340659.0071917242,93781.95902118093,121128.99399591985,2,611,2731,1
-1406.1195859698942,-116.97731182117485,175.0737683071659,342790.4559949832,93176.22923455435,117456.33615192646,0,577,2727,1
-1420.3311750739067,-110.00811953373028,175.23257881340146,344953.6360837685,92602.34169426282,113772.59210882727,0,609,2716,1
-1432.9295238927714,-103.07159079878771,174.51666692751863,347126.6304534455,92067.571614143,110101.084067782,0,625,2702,1
-1443.5794023752583,-96.32740604714999,172.85051947990652,349286.04182046535,91581.33129738798,106467.88664417062,8,665,2678,1
-1451.932938970764,-89.9465756628717,170.1969290898646,351406.74759669614,91154.96876384602,102902.00282507984,17,731,2622,1
-1457.6385685538369,-84.10374945243117,166.56343290777477,353461.51737708226,90801.31612748794,99435.55903865884,2,823,2557,1
-1460.3505529406864,-78.9707196956372,161.99980110398113,355420.679212961,90533.90312977134,96104.05197902632,15,890,2485,1
-1459.741932858191,-74.71069283033535,156.58511453422383,357252.1052749669,90365.81979052156,92946.48612316376,11,975,2374,1
-1455.5196185217087,-71.47392279380462,150.41023242891708,358921.6291703189,90308.67658165764,90005.37465567763,13,1041,2330,1
-1447.4396389700507,-69.39380135013575,143.56115064657618,360394.23539186176,90372.14625004657,87326.4647456302,19,1132,2241,1
-1435.322544366795,-68.57906290104425,136.10439751410883,361636.33148810023,90564.11744989138,84957.91922680257,16,1295,2109,1
-1419.0646475898009,-69.10160748432347,128.07843983789027,362618.49194164877,90891.30278929054,82949.18603666987,16,1411,2002,1
-1398.640108686965,-70.98175404477853,119.49670845642987,363318.33557111135,91360.30067404042,81349.70617528193,9,1549,1886,1
-1374.095008724694,-74.17048175990992,110.36148507765877,363723.85801849596,91978.9931812628,80207.24566689902,8,1584,1833,1
-1345.5386001156608,-78.5326196352183,100.681376688024,363836.43280593137,92757.63346262931,79566.23677694843,9,1605,1824,1
-1313.1332908162058,-83.83937717110993,90.48673908513447,363672.4746329661,93708.92882504706,79466.5799471868,0,1715,1739,1
-1277.0820950378334,-89.77459675404063,79.84239005677111,363264.0095115299,94847.04042673885,79942.75582318702,0,1753,1695,1
-1237.617667117904,-95.95331688407693,68.85697513556028,362658.53237937565,96185.94467481326,81023.28087870771,0,1787,1660,1
-1194.9968522913268,-101.95355537623335,57.687311006970994,361917.6406965707,97737.38892380698,82730.74550352187,0,1860,1596,1
-1149.499593959988,-107.36103013033714,46.53580860024518,361113.878997335,99508.43355966719,85082.27193056197,0,1855,1586,1
-1101.432008687354,-111.8117351633078,35.640674800756436,360326.474338156,101499.20279109548,88089.89633307686,0,1869,1577,1
-1051.132122788265,-115.0197648438542,25.259185161706505,359636.37467105687,103701.69491677808,91760.57198790679,0,1879,1559,1
-998.974348763786,-116.79497286693251,15.644112256994053,359120.2393666269,106099.80680697122,96095.87103650846,0,1900,1537,1
-945.3714506074356,-117.05231922640675,7.020379179296957,358844.79286215524,108670.3283443909,101091.51949581021,0,1910,1532,2
-890.7717622052755,-115.80625122260045,-0.4300944175476744,358863.0643650351,111385.18752695387,106736.97491851938,1,1928,1514,2
-835.6497768052466,-113.15036490744005,-6.575681422026722,359212.03185967106,114215.1585214624,113015.2707107726,5,1955,1495,2
-780.4960770155951,-109.23270788488529,-11.335634240617562,359911.41542012384,117133.68113817547,119902.99536088873,0,1992,1468,2
-725.8103603414729,-104.2316593951131,-14.672592101892638,360964.2139338289,120119.44649590756,127370.45703133823,0,2016,1451,2
-672.0938547189087,-98.32915896974409,-16.578512786960843,362358.89241075626,123157.8784310735,135382.33229711157,0,2011,1454,2
-619.8416202563859,-91.68588035113771,-17.060196491492185,364072.1475957882,126241.52114760307,143898.46612483318,0,2009,1455,2
-569.5347779076291,-84.42542306359788,-16.129652946267086,366071.6704359559,129368.93325495714,152874.74039574695,0,2009,1451,2
-521.6288113998614,-76.62615017529511,-13.80014138904731,368319.1027158491,132542.39471363518,162264.4781993483,0,2006,1454,2
-476.5420040911346,-68.3196425966017,-10.087667041302339,370772.6130376755,135765.44330466876,172019.86066059524,0,2007,1454,2
-434.6482653306795,-59.498832393131686,-5.0165923511681525,373388.67672375945,139041.0664670161,182092.93784453557,0,2007,1455,2
-396.270442091054,-50.13560666710651,1.3751124123573517,376123.70443221496,142370.6976230471,192436.78318350023,0,2010,1453,2
-361.67512087570486,-40.20145569203498,9.034813786096002,378935.5075625339,145753.89672295947,203006.4694062765,0,2008,1455,2
-331.0754245102403,-29.686296103818542,17.897252053691886,381784.09050836996,149188.66672814847,213759.36801241813,3,2009,1450,2
-304.64192045152225,-18.614522734909443,27.88587954014467,384631.8944299231,152672.23251309275,224655.18482978153,0,2010,1451,2
-282.5152615638882,-7.054835587543182,38.91141227600271,387443.7873491983,156201.74438409682,235655.6475259186,0,2010,1451,2
-264.81405536771905,4.880434906753004,50.86941887933424,390187.2359662574,159774.63707192583,246723.68996987861,0,2008,1455,2
-251.63586913308458,17.046693020495027,63.64122322579244,392833.09685325174,163388.92309396534,257822.71784225298,0,2006,1455,2
-243.05422359254652,29.284162606527094,77.10104824110299,395356.6941650791,167043.4090624181,268916.1359544849,0,2008,1455,2
-239.1148747672188,41.43543284353603,91.13175487563522,397738.6523028799,170737.52445929067,279967.23744572885,0,2010,1451,2
-239.83256003333682,53.36044487220665,105.64720679665041,399965.37466621754,174470.6551293397,290939.8047553701,0,2009,1452,2
-245.18905576945352,64.94506909314613,120.60839144462533,402028.9718356962,178240.9879900215,301798.8644052104,0,2006,1454,2
-255.1329318696602,76.10292736159165,136.02248378491458,403926.4387249608,182043.92978635198,312511.2206702128,0,2009,1451,2
-269.5794675036038,86.7733626173249,151.92934598457106,405658.4053168321,185870.41135695623,323046.25209578156,0,2008,1451,2
-288.4089854014492,96.91501239921625,168.3838032626178,407228.0664557351,189705.69449009182,333376.57799223246,0,2009,1451,2
-311.4641718719081,106.4947455650301,185.4372637047319,408640.4996263634,193529.34270167784,343478.0775190786,0,2009,1452,2
-338.54840319499306,115.47639009733844,203.12334446386814,409902.1320662673,197316.43126673563,353329.68422555615,0,2005,1453,2
-369.4274282822051,123.81324973939158,221.4510559184673,411020.19691216125,201039.14843101145,362912.980018532,0,2008,1451,2
-403.8352393959402,131.44463220850506,240.4031945255539,412002.1859908768,204668.15615911197,372211.46076600946,0,2008,1453,2
-441.4803115219732,138.29556934332436,259.936515440927,412855.3125037527,208173.82868465636,381209.8572931095,0,2008,1453,2
-482.0493616431456,144.27978237725995,279.9836751855398,413586.0452724909,211527.14757570828,389893.53855196305,0,2006,1452,2
-525.2106445135959,149.30557339399147,300.45726132277224,414199.73927719047,214700.05037417202,398248.0143835872,0,2007,1454,2
-570.6170257211631,153.28253222100707,321.2530448526348,414700.3075240504,217665.64589699777,406258.88076377375,0,2007,1452,2
-617.9091437409336,156.12808701809368,342.2511215725247,415089.92612925725,220398.47155083917,413911.9695492479,0,2008,1452,2
-666.7210644013686,157.77457320664658,363.3174412737101,415368.7108731189,222874.79772327634,421193.4619288139,0,2008,1453,2
-716.6860140788467,158.17468230087644,384.30591094161105,415534.23004896066,225073.14633807543,428090.2127210478,0,2007,1452,2
-767.4404085428461,157.3018104441469,405.059038791028,415580.9262740945,226974.88823508026,434590.0515674221,0,2008,1452,2
-818.630365508925,155.144098494698,425.40796699052197,415499.6922323191,228564.84353347705,440681.8595395966,0,2008,1454,2
-869.9204433965091,151.6939639068051,445.17364039184315,415277.7484835171,229832.07492214383,446355.74567253736,0,2008,1453,2
-920.9986166722263,146.93812156236982,464.16930795685875,414898.88901475933,230770.6453615853,451603.1795558327,0,2007,1452,2
-971.5769834394464,140.85199197417185,482.20618887660703,414344.23687434895,231379.93976658987,456416.79038995417,0,2008,1454,2
-1021.3921677618276,133.39807190906546,499.10338699319743,413593.5090755375,231664.53924239628,460790.0206416096,0,2007,1453,2
-1070.2050097874371,124.52686719534503,514.6975813513284,412626.3896024311,231633.7597372954,464716.7118473249,0,2007,1453,2
-1117.798194446106,114.17975305313978,528.8492908426321,411423.7970367773,231300.75157891418,468190.58252672857,0,2008,1452,2
-1163.9734766874692,102.2925539912517,541.4474072903762,409969.2002372895,230681.1151421501,471204.71271735476,0,2009,1452,2
-1208.5484430062845,88.79835605751286,552.4113971586494,408249.8114998852,229791.4732364759,473751.0536407259,0,2008,1455,2
-1251.3525977053205,73.62893568076598,561.6884510359827,406257.4113790935,228648.3383754171,475819.94178464316,0,2009,1451,2
-1292.2246072968478,56.71546187864191,569.2464820160706,403988.9566087631,227267.15410837386,477399.7007069183,0,2006,1452,2
-1331.010231137187,37.98999914350976,575.0667468916118,401447.122260906,225661.61494974894,478476.37390623754,0,2009,1451,2
-1367.5599288574288,17.388776093264738,579.1378381842118,398640.7245711217,223843.4570456976,479033.6250260428,0,2008,1455,2
-1401.7273024247568,-5.14336834366926,581.450221650838,395584.9994472885,221822.58433330446,479052.86930416507,0,2009,1456,3
-1433.3682042217554,-29.648044169483313,581.9921657004163,392301.8132736578,219607.41195766747,478513.5872748083,0,2006,1456,3
-1462.340315011906,-56.14751562608181,580.7500238102665,388819.69989578554,217205.4545220823,477393.7787513876,0,2010,1452,3
-1488.5043338653663,-84.63828525284177,577.7135819562877,385173.50704246503,214624.1261266028,475670.5708079974,0,2005,1460,3
-1511.7256992493612,-115.08509682704928,572.8832336606883,381403.7772802048,211871.5771330784,473320.85156379925,0,1997,1467,3
-1531.8762417298756,-147.41499711911507,566.276440473972,377555.8284840633,208957.36519500194,470321.82846661954,0,1992,1470,3
-1548.83726954255,-181.50997865091074,557.9343740696037,373678.27670242416,205892.89525154213,466651.61321243475,0,1986,1470,3
-1562.5035251111374,-217.19860810571603,547.928949697882,369821.47047921846,202691.67561681103,462289.9262225841,0,1983,1475,3
-1572.7884926843383,-254.2497992108469,536.3684475175934,366036.14660061256,199369.2806351259,457218.8983161204,0,1982,1478,3
-1579.6333950857197,-292.37064171412425,523.4003536736675,362371.85852347483,195942.8722148803,451423.93727434525,0,1975,1484,3
-1583.017366929392,-331.2061674289808,509.21142439791583,358875.3673693621,192430.5543428376,444894.67759773857,0,1966,1487,3
-1582.964438127793,-370.33922849315843,494.025410093119,355589.3064865327,188850.74557337366,437626.0157964331,0,1969,1489,3
-1579.5466352690908,-409.29067098661204,478.09845319090863,352550.7713943229,185221.36629035982,429619.2133764257,0,1965,1491,3
-1572.8836773306566,-447.51831353118064,461.71248719612345,349789.95944047486,181558.99219053425,420883.1143885027,0,1955,1499,3
-1563.1396653420938,-484.41453909287094,445.16322252636337,347328.91534961644,177878.10403401082,411435.406172753,0,1956,1505,3
-1550.5184409063531,-519.305574990429,428.7383760814291,345179.83183740976,174190.2397428899,401303.74628278945,0,1952,1505,3
-1535.260309951924,-551.4568485253654,412.6931922337203,343343.13709128223,170503.52399416963,390526.8353113694,0,1949,1504,3
-1517.639900981146,-580.0955128595614,397.2356866607066,341806.04566540127,166823.57910837786,379155.4070875178,0,1946,1510,3
-1497.9614919776684,-604.455077367592,382.5267542313822,340541.7582016858,163156.04217833883,367252.88468109263,0,1945,1505,3
-1476.5519484593722,-623.8212582609787,368.6917763077254,339509.53536641406,159509.52846028368,354895.82363849645,0,1944,1508,3
-1453.7543409048096,-637.5608412658971,355.83326298370326,338656.08397330064,155897.36535674558,342173.73870863544,0,1945,1510,3
-1429.922493519932,-645.1421938619152,344.03531830701434,337918.28870447306,152337.44014311986,329187.5135270879,0,1940,1510,3
-1405.416645804138,-646.1575876677017,333.3599060478791,337226.4735465305,148850.86023220947,316047.12163231464,0,1946,1503,3
-1380.59933496148,-640.3507759159249,323.8392492991899,336507.70873014955,145460.24107451856,302869.1332238385,0,1976,1480,3
-1355.8287181841292,-627.6513562357786,315.4671226376634,335689.4049809674,142188.0051086373,289773.2754310652,0,1973,1481,3
-1331.4507840300944,-608.2026227301575,308.1927391814214,334702.67664360674,139055.31195578826,276878.91523367364,0,1974,1485,3
-1307.7921307598556,-582.3614862452544,301.92234851226914,333485.2232346972,136081.89795194613,264301.94911466865,0,1972,1485,3
-1285.1517522957922,-550.6658268882168,296.5288774671711,331984.456548766,133286.24931630425,252150.8515547716,0,1970,1489,3
-1263.7941189067044,-513.7880017247496,291.86411724598554,330160.54705030017,130685.61178663315,240522.74563032773,0,1968,1490,3
-1243.946461313456,-472.49004727315656,287.7689845885477,327988.3764355735,128295.5066575357,229500.94176414018,0,1968,1488,3
-1225.7978992277854,-427.581147106244,284.0810308757091,325458.23834830546,126128.58440590104,219153.38522032867,0,1966,1486,3
-1209.497661493966,-379.88644318339004,280.63817482223266,322575.5376238226,124193.41758380365,209532.0200068638,0,1976,1479,3
-1195.1501619841208,-330.2378780946465,277.2776221673675,319359.43608799163,122493.93370455761,200673.53127758345,0,1975,1481,3
-1182.8056949455995,-279.48072087048166,273.8317743307957,315840.5472354579,121029.50464699094,192600.83325089232,0,1984,1471,3
-1172.4514675650785,-228.4858112811243,270.1249499715986,312058.64909865335,119795.52726310502,185324.68311904272,0,1988,1473,3
-1164.008207790789,-178.1632571074618,265.9733386547416,308061.0403307428,118784.60229360184,178845.18860276008,0,2000,1459,3
-1157.3310385528841,-129.47362114242713,261.18914799004455,303901.1638084138,117988.31079096881,173152.9977219325,5,2007,1457,3
-1152.2117302062445,-83.42549106466062,255.5963462316962,299637.5473311043,117399.0822504023,168230.1762545682,190,2005,1455,3
-1148.3820674644671,-41.04897195898547,249.06653986494794,295333.31954398827,117011.74679953534,164050.87317709578,579,2006,1459,3
-1145.5206241471,-3.3489982114614913,241.56198073266324,291055.7670677598,116824.61687237654,160581.80223463968,1168,2008,1453,3
-1143.2711955438383,28.775379222668896,233.15198939349878,286874.8284897485,116839.0275115999,157782.45051830405,1641,2013,1451,3
-1141.2779889262927,54.67143975256591,223.98103315446156,282860.5224245896,117055.24361008235,155604.60577327534,1952,2011,1453,3
-1139.2218074633613,74.09519859086599,214.20170085697737,279081.7022047552,117464.45898608495,153990.97917620745,2061,2010,1451,3
-1136.8354248921037,87.31540817282398,203.90758543013425,275608.1962026586,118040.9340805123,152873.9306800509,2317,2010,1451,3
-1133.901283379451,95.08578027262867,193.11198082436408,272514.7924444352,118740.07949247175,152176.6674009365,2514,2009,1452,3
-1130.252188629695,98.45842542467747,181.80237668381054,269882.7844883731,119504.65626666711,151818.43417570405,2610,2011,1455,3
-1125.7837505624013,98.5405139149545,170.02317670356211,267795.2748247239,120275.31561342189,151722.05321862618,2620,2009,1452,0
-1120.4702369270124,96.32591847290443,157.90371304530248,266324.54826212133,121000.21839310875,151821.34203193896,2565,2012,1454,0
-1114.3718654216927,92.6211115698096,145.62145021348175,265514.72253421013,121641.49372714324,152067.09812212735,2482,2007,1454,0
-1107.6260956625767,88.03429461985989,133.3543994932073,265369.51533368934,122177.86563619686,152429.6380240975,2371,2005,1453,0
-1100.4216372361875,83.0003843420804,121.26489467585657,265853.2814257394,122603.62136569674,152896.01991960208,2303,2007,1452,0
-1092.9646789914739,77.80987474858016,109.51557624757706,266903.1272448874,122925.37577263979,153463.2330861477,2236,2012,1454,0
-1085.4548804002363,72.62640431701392,98.29114763893769,268442.70957658143,123158.12176648478,154131.53222521735,2233,2013,1451,0
-1078.0749389581354,67.50621775121344,87.79731108154017,270391.7308957456,123320.88775000106,154900.7764355572,2220,2010,1453,0
-1070.9814826840966,62.434773585391035,78.2321312637985,272672.1887584127,123431.95664811623,155769.18797979984,2215,2023,1451,0
-1064.2932467326968,57.370146604490394,69.75215610790576,275212.71945415146,123505.12916121885,156733.19332689556,2236,2022,1452,0
-1058.0836908607698,52.27717207548672,62.45205175634031,277950.77244609524,123548.50717997503,157787.71806280842,2251,2028,1451,0
-1052.3819422217305,47.15012819501393,56.357265245710046,280833.1465612229,123565.59379206988,158926.6493644683,2296,2042,1454,0
-1047.180253742452,42.022127784870165,51.42604062102874,283815.2555419756,123557.77115185357,160143.45345941058,2317,2035,1452,0
-1042.4460566492348,36.95799309598139,47.56292480498983,286859.50411263993,123526.78348578855,161431.7368431818,2349,2031,1450,0
-1038.1364923050296,32.0352260381765,44.64280682828028,289933.5793613573,123476.03620683578,162785.45931653926,2364,2034,1452,0
-1034.2100604373595,27.32462868750363,42.53483854838833,293009.06650520675,123410.59233412454,164198.84167660325,2405,2056,1453,0
-1030.6310675651348,22.879863776673375,41.11553780018575,296060.55379795487,123336.38698095318,165666.11764429617,2438,2047,1451,0
-1027.3678077665988,18.736356129876324,40.27081946734382,299065.294384851,123259.18206289205,167181.26900853455,2460,2045,1452,0
-1024.3886604920608,14.914891630835172,39.89280421808366,302003.18297080457,123183.67076476786,168737.90196336506,2466,2060,1450,0
-1021.6603832056936,11.425688725233364,39.876771249469506,304856.65297841874,123113.10567576876,170329.26244627193,2462,2061,1449,0
-1019.1498642262682,8.2706884889122,40.121504833330945,307610.37666145584,123049.58850793148,171948.2925513377,2400,2080,1454,0
-1016.827709438924,5.443752918003309,40.533204318905874,310250.9968766053,122994.71023027059,173587.70441013123,2326,2075,1450,0
-1014.6714472808096,2.929761670288637,41.03039508884631,312767.03956050175,122950.0322855638,175240.0296824677,2265,2064,1453,0
-1012.6669121161985,0.7043490289974091,41.547182558055304,315149.0662102585,122917.1035462872,176897.6644464038,2182,2075,1451,0
-1010.8080114770266,-1.2645643291467707,42.033822102731015,317390.083575192,122897.07618316881,178553.00781959,2066,2074,1453,0
-1009.0956566962145,-3.0135468056487382,42.45459219831041,319485.90521681664,122890.22582983924,180198.6109026136,1966,2088,1450,0
-1007.5355504435032,-4.578932876484935,42.783423432924224,321435.18408320664,122895.64849560807,181827.23577849494,1887,2080,1453,0
-1006.134670556958,-5.991397528762176,42.99887122710783,323239.21558903606,122911.21736220625,183431.88637400453,1786,2080,1454,0
-1004.8980558111173,-7.272444863054508,43.08139699373221,324901.62490205164,122933.75729168887,185005.7993692364,1694,2075,1453,0
-1003.8274721825193,-8.434652125743314,43.014676207686456,326427.8653378599,122959.38035840832,186542.37416415426,1532,2087,1451,0
-1002.9219452887708,-9.484111602719377,42.78894271035759,327824.4788787304,122983.9052551515,188035.13587850213,1444,2103,1453,0
-1002.1792080617082,-10.422443491933636,42.402864893208715,329098.27703737706,123003.20294841273,189477.74801094423,1282,2112,1452,0
-1001.5967785196009,-11.248137261379094,41.86236255289551,330255.65745372354,123013.36542144894,190864.08155148843,1179,2130,1454,0
-1001.171904927766,-11.958305379783214,41.17715468542918,331302.10589830956,123010.75040823228,192188.39931554117,1060,2116,1457,0
-1000.9007403444336,-12.550903105270987,40.35715252753647,332241.89128130686,122991.9809856511,193445.55652117997,943,2154,1454,0
-1000.7775772473964,-13.027200514645422,39.41058377065782,333078.03831111477,122953.96945466712,194631.1136323913,854,2142,1456,0
-1000.7945983184266,-13.394091937656453,38.34438152080938,333812.575016837,122894.02901802553,195741.40589314865,778,2130,1453,0
-1000.9422383463691,-13.66494370077133,37.16608650687676,334446.8665281683,122810.05046262984,196773.54797824624,726,2128,1454,0
-1001.2101722719894,-13.858389568072303,35.886203245341626,334981.9303682218,122700.66916607662,197725.32767614853,694,2144,1457,0
-1001.5885029213665,-13.99619568537515,34.52080748315086,335418.79712561896,122565.37856240461,198595.05342577174,651,2148,1454,0
-1002.0684008188166,-14.101824525576404,33.09400076795158,335758.83332781756,122404.57444299523,199381.42602596487,610,2157,1457,0
-1002.6420374821914,-14.200188659913662,31.638601953517288,336003.8702571787,122219.5206377944,200083.4906789822,583,2152,1457,0
-1003.3022023330408,-14.317799500325929,30.194186836555883,336156.1723804465,122012.23177872787,200700.703628546,509,2156,1453,0
-1004.0416718764305,-14.482609516868889,28.803580257861505,336218.3625975324,121785.30564608097,201233.04376129218,452,2186,1459,0
-1004.8519713031386,-14.723582430536355,27.5089840434825,336193.37481246644,121541.74427075786,201681.1090596709,407,2195,1470,0
-1005.7217443922406,-15.0702665751854,26.348053324778554,336084.45060643606,121284.7853041594,202046.22085985608,387,2178,1459,0
-1006.6358850188477,-15.552592855785283,25.350849734811188,335895.1576035598,121017.79550924986,202330.51515884185,354,2208,1627,0
-1007.5763431345022,-16.200944544961047,24.538386660373142,335629.41713251686,120744.23057711487,202536.9836618067,320,2223,1632,0
-1008.5241799733734,-17.04618458941601,23.922131059336834,335291.5561069039,120467.59095115885,202669.4837872754,280,2236,1634,0
-1009.4613098066818,-18.119165356881982,23.5041360984694,334886.3955992661,120191.3525612615,202732.72073665596,280,2234,1631,1
-1010.3709816113015,-19.449473292433012,23.27843134828459,334419.3688268818,119918.88089588037,202732.1729312901,241,2266,1635,1
-1011.2377675556852,-21.063790244181646,23.23365655887617,333896.6438618802,119653.32276359534,202673.96545324585,198,2261,1630,1
-1012.0479588470097,-22.984655152063535,23.35554772573452,333325.21220328606,119397.50571868655,202564.73835047978,185,2271,1635,1
-1012.7901713910217,-25.22982132786795,23.628260171566932,332712.8891741889,119153.85292152765,202411.51292632843,144,2273,1633,1
-1013.455695577729,-27.811856495605802,24.034986728747967,332068.2096391738,118924.28446939247,202221.51874056572,111,2272,1631,1
-1014.0384721074853,-30.73780779635228,24.558463394922374,331400.2811030945,118710.14004528329,202002.0065712073,104,2293,1631,1
-1014.5350036354357,-34.00887555192891,25.18133923290408,330718.59964811965,118512.18060979838,201760.05849977405,83,2325,1644,1
-1014.9447925865065,-37.619947051673066,25.886240137199888,330032.7852904551,118330.66068259678,201502.35562063442,25,2327,1647,1
-1015.2711050324369,-41.559016929884194,26.655516789484242,329352.3277398025,118165.41830982303,201234.94917995762,14,2303,1647,1
-1015.5208959533446,-45.80699062430853,27.471149109906275,328686.40966063546,118015.94067050739,200963.0909286087,17,2328,1659,1
-1015.7035605076842,-50.33818141803561,28.31552052618461,328043.7400777312,117881.4081609558,200691.10315059894,31,2360,1658,1
-1015.8296746568652,-55.12110348011868,29.173079224816135,327432.4011310316,117760.74639400824,200422.3040840364,18,2368,1661,1
-1015.9107540954359,-60.11928518699953,30.03234109723527,326859.711257347,117652.70246849963,200159.00958462263,0,2375,1673,1
-1015.9597347248831,-65.29193534586533,30.88774216442748,326332.0302148528,117555.92859503695,199902.56748113278,0,2355,1677,1
-1015.9912350361786,-70.59412198879426,31.740820633561803,325854.5470157045,117469.02950721515,199653.38807092755,0,2377,1683,1
-1016.0211959806492,-75.97683391526499,32.600475291572,325431.1396180304,117390.54984459955,199410.9697406088,0,2371,1685,1
-1016.0660692724591,-81.38710863675419,33.48250068926874,325064.2949859556,117318.92594514036,199173.93998339935,0,2381,1697,1
-1016.1419925787383,-86.76811672138403,34.40865161992777,324755.0610640088,117252.4381617781,198940.18407429045,0,2400,1714,1
-1016.2648451163905,-92.06059277444724,35.40554151918166,324503.02359192405,117189.17739050092,198707.1228233395,0,2388,1723,1
-1016.4513943910908,-97.20612040746254,36.50366476677408,324306.28925068694,117127.03677120322,198472.03511423568,0,2407,1726,1
-1016.720272140405,-102.15052979137427,37.73620260977738,324161.456447867,117063.74749929817,198232.21257875624,0,2423,1727,1
-1017.0920127041388,-106.84646943854602,39.13709758278481,324063.6097613479,116996.95471076125,197984.87130791988,0,2420,1727,1
-1017.5889129077265,-111.25469498280157,40.73924631642334,324006.4161229614,116924.2987497972,197726.9418365118,0,2430,1738,1
-1018.2362620116147,-115.34432593497016,42.57283043207329,323982.3610416827,116843.45102777239,197454.86102305038,0,2419,1757,1
-1019.0659944221948,-119.09495707974068,44.66044519692043,323983.0704123977,116752.05275082611,197164.3939089314,0,2462,1743,1
-1020.1195597717544,-122.50038992935421,47.00843095138122,323999.6756818497,116647.49751458816,196850.54160216096,0,2452,1779,1
-1021.4439922850452,-125.56851276582384,49.599102368684214,324023.342243251,116526.49153165848,196507.60848823996,0,2486,1769,1
-1023.0826168123039,-128.31607219828052,52.3880384967089,324046.01116410905,116384.62894680652,196129.34737886707,0,2497,1773,1
-1025.0693653831092,-130.76265923029217,55.31022628972196,324061.14633345255,116216.60425915517,195709.02567114212,0,2468,1796,1
-1027.4308724729945,-132.92690566782616,58.295267297665816,324064.18549059384,116017.19463804236,195239.43305921505,0,2467,1788,1
-1030.1918031675782,-134.82523515080447,61.282462678285555,324052.507684892,115782.26163629351,194712.95593907862,0,2432,1824,1
-1033.3776112119042,-136.4723349334035,64.22722207093156,324025.05781779,115509.06517335873,194121.7151164141,0,2415,1828,1
-1037.0143866818275,-137.8830503222438,67.1002410971568,323982.00463917933,115195.90516644537,193457.69766785705,0,2410,1856,1
-1041.1284519307312,-139.07478808158638,69.8844506210344,323924.6470336855,114841.57466590476,192712.87152302236,0,2392,1850,1
-1045.7461152752594,-140.06752030629784,72.57188635406645,323855.4612976714,114445.03744978772,191879.2884875845,0,2369,1880,1
-1050.89284050221,-140.880916475287,75.16123248954214,323778.1251416266,114005.40515254303,190949.1731864212,0,2365,1896,1
-1056.5921479475217,-141.53157171349244,77.65673747924443,323697.49090937915,113522.09141674216,189915.01646110966,0,2351,1922,1
-1062.864964729406,-142.0320677058289,80.0680337920808,323619.48963821935,112995.00381201917,188769.6863770059,0,2349,1923,1
-1069.7293656176735,-142.39130053895886,82.40980316071567,323550.96024526225,112424.6864610201,187506.5448482714,0,2382,1942,1
-1077.199963778419,-142.6151623987959,84.70115141497455,323499.49467973126,111812.39911932318,186119.5760548139,0,2273,1992,1
-1085.286706614852,-142.7071467489663,86.96521193209195,323473.35080770875,111160.12862164511,184603.51285118755,0,2203,2040,1
-1093.993729684864,-142.6687150147298,89.2290405907528,323481.3686122907,110470.52633201127,182953.92381989316,0,2132,2068,1
-1103.3192707410503,-142.49903575070283,91.52307436639768,323532.84434659686,109746.81450058226,181167.28175403236,0,2096,2046,1
-1113.256576079648,-142.19382825963493,93.87949184871606,323637.38187150797,108992.69935087426,179241.03532856292,6,2081,1975,1
-1123.7941126686017,-141.74372597303653,96.32980402193361,323804.74686114513,108212.27897108042,177173.6771976784,0,1990,2006,1
-1134.9144984338375,-141.1332316764546,98.90229788030202,324044.73631972354,107409.9105923332,174964.8048404825,0,1952,2036,1
-1146.5940275222138,-140.3417794718118,101.6194468894263,324367.0425628566,106590.03031244781,172615.18198163423,0,1923,2081,1
-1158.8034101347923,-139.34692006993066,104.49546993510064,324781.07656609244,105757.01547905595,170126.82740120697,0,1789,2115,1
-1171.5080049566052,-138.12754504561107,107.53422163066764,325295.7374182881,104915.15392628037,167502.9990681706,12,1741,2166,1
-1184.6671086482202,-136.66590949197095,110.7274914874833,325919.1781530382,104068.67202042641,164747.93352298922,0,1628,2199,1
-1198.2331533004035,-134.9486715769303,114.05420663814603,326658.6576601565,103221.78613411843,161866.55678192945,1,1621,2227,1
-1212.1512490526466,-132.9672472138436,117.48086125372781,327520.4893300311,102378.73331651886,158864.32661549601,0,1612,2257,1
-1226.3592159873263,-130.71792444971263,120.96250775366195,328510.01248255104,101543.72240632615,155747.08309658928,0,1524,2267,1
-1240.7873539725838,-128.20218118104643,124.44325927579953,329631.5299548442,100720.85575808381,152520.96246557872,0,1469,2284,1
-1255.3571739418285,-125.42724712058126,127.8563799174198,330888.25709811936,99914.09190953297,149192.42858805976,0,1399,2283,1
-1269.9795072968577,-122.4067088273755,131.1249118251645,332282.34685220197,99127.24899804653,145768.27966486642,0,1301,2362,1
-1284.5525325571982,-119.16112941212488,134.16306755955986,333814.91853031,98364.06914960776,142255.68409896336,0,1269,2331,1
-1298.9600732513243,-115.7189476887626,136.87848439352763,335486.00905697804,97628.36787596875,138662.3063640917,0,1244,2322,1
-1313.0703764653695,-112.11767904623146,139.1755862644624,337294.4740561555,96924.2343947867,134996.39786778906,0,1218,2342,1
-1326.7351828668104,-108.40486293759338,140.95953730843644,339237.8413357641,96256.24007795172,131266.91256525967,0,1056,2390,1
-1339.7893307220688,-104.63821335397635,142.14074008841285,341312.08354768786,95629.63751613705,127483.71841179952,0,1060,2387,1
-1352.0515415269056,-100.88484159793919,142.64027319508435,343511.2864797925,95050.52858250393,123657.7944628349,0,1060,2399,1
-1363.327279335278,-97.21896341981947,142.3959253702507,345827.1414657991,94525.92957337541,119801.46559856774,0,1057,2403,1
-1373.413695535178,-93.71768815342138,141.3677981954706,348248.15355136275,94063.56859840323,115928.74559150422,0,1015,2422,1
-1382.1034872393095,-90.45665492701872,139.5413213155178,350758.5986876607,93671.34183541815,112055.68322587165,11,1024,2399,1
-1389.1846064544307,-87.50793640396809,136.92561337559505,353337.52704878617,93356.70326132738,108200.7231964135,11,1069,2386,1
-1394.4373906259991,-84.940903606952,133.5478077883856,355958.0666131022,93126.3013318931,104385.10924853248,11,1078,2367,1
-1397.632774878991,-82.82546063795445,129.44709045254444,358587.0170184708,92985.91259409825,100633.22927034434,10,1132,2326,1
-1398.534471322748,-81.23737972812357,124.6718981939385,361184.836950935,92940.77623975968,96972.91880766583,11,1182,2269,1
-1396.9063021792297,-80.26554703684342,119.28021628660419,363706.4260230658,92996.4391479854,93435.6928986089,9,1263,2179,1
-1392.5232237875039,-80.01834439293579,113.34082266528414,366102.74397364503,93159.77613500463,90056.76201590637,11,1376,2114,1
-1385.186412189826,-80.62321664482688,106.93276202469153,368322.7687450095,93439.6354187141,86874.90737590445,20,1487,2008,1
-1374.7432735179168,-82.21296211985778,100.1410939592614,370316.12353047216,93846.85656878105,83932.14204560212,16,1556,1894,1
-1361.1054983473239,-84.89988506484666,93.0509201622887,372037.0905072879,94393.75837948748,81272.88601976943,0,1618,1835,1
-1344.2573189906775,-88.74985980999769,85.74352867068392,373448.9746155055,95093.35285515436,78942.87336721834,4,1648,1807,1
-1324.2530506444366,-93.76368860101326,78.29465072705341,374527.70239547774,95958.37718826074,76987.90059386207,4,1673,1783,1
-1301.2064636325442,-99.86207284301106,70.77293880050141,375265.02086865954,97000.14359038793,75452.14531907861,0,1763,1707,1
-1275.276889420372,-106.87328885196344,63.24029635571125,375671.01311217877,98227.51898776348,74376.46451373206,2,1812,1664,1
-1246.6526399498089,-114.52820506614005,55.75760567349804,375774.99818867166,99646.29773941914,73797.21337463926,2,1805,1661,1
-1215.5282272233237,-122.4651680872375,48.3948090213318,375624.75507398543,101258.79594111623,73745.47876373584,1,1860,1628,1
-1182.0834446070983,-130.24504226088226,41.23945199236813,375284.5263843458,103063.4418786908,74246.76210547592,2,1850,1607,1
-1146.4770553797684,-137.38198086545916,34.39941592887186,374831.5023135378,105054.32490810462,75321.40520924529,1,1844,1606,1
-1108.8539529259585,-143.39197423357388,27.999499088112678,374350.3262655535,107220.77389949073,76985.60383788923,2,1869,1580,1
-1069.357564722885,-147.84259299557448,22.173537393863572,373926.97794852284,109547.12190357751,79252.33969904965,3,1864,1579,1
-1028.1444823693917,-150.39099886848467,17.052761804464012,373643.12132865004,112013.10452206046,82131.75027118152,0,1894,1552,1
-985.400602612151,-150.8135111293997,12.75135554326322,373570.4416102742,114595.30528367615,85630.96992378961,0,1909,1543,1
-941.3547814335024,-149.0225954040197,9.355155401412366,373765.9453305045,117269.32581400393,89753.55241728752,0,1913,1532,1
-896.284538029947,-145.06038337134152,6.919645448577336,374269.6895890368,120012.53303311273,94498.54176584659,0,1946,1499,2
-850.513049518622,-139.07124626876413,5.476809971507608,375104.5133163131,122807.50850483672,99859.38898834615,3,1979,1473,2
-804.4029999501622,-131.26913289746562,5.0457993661218845,376276.85630528687,125644.94356576388,105823.02241573704,4,1997,1462,2
-758.349598016872,-121.90781100538624,5.6437462344121565,377778.5747988913,128524.41777290187,112369.570451976,0,2010,1455,2
-712.7697948431414,-111.25121160671522,7.29593657022726,379589.7635457442,131453.11811141064,119473.01559903978,0,2010,1455,2
-668.0901485752041,-99.54877838892051,10.042573474049345,381681.68803513376,134443.4843001716,127102.25021765433,0,2010,1452,2
-624.735670876009,-87.02181941073097,13.936919564378483,384019.23181570927,137510.33669323102,135222.2482946114,0,2012,1451,2
-583.1169813869653,-73.85623063761396,19.033136250432815,386563.2410296462,140667.70794927777,143795.6097637425,0,2010,1455,2
-543.6187060440458,-60.198465592310534,25.37019554125718,389272.5895172055,143926.20289390162,152783.87299460644,0,2007,1452,2
-506.59172340070194,-46.1571883992673,32.96110519429245,392105.84427220235,147291.78389873073,162148.158844862,0,2007,1452,2
-472.345803781466,-31.810926747800824,41.79013087352955,395023.0637274359,150765.90675508927,171849.74670355834,0,2006,1457,2
-441.1446419413361,-17.21870190504267,51.81577713564092,397987.411208137,154346.28726306403,181850.53625129245,0,2006,1455,2
-413.20809041794575,-2.4311277665758495,62.97801752087366,400965.95986416534,158027.88793926474,192113.12136387243,0,2009,1451,2
-388.71942164797326,12.49957443516493,75.20765326879963,403929.8611081157,161804.0736720639,202600.8349950735,0,2009,1450,2
-367.8328452320109,27.51375016404928,88.43508148814205,406854.1464286446,165667.4612108579,213277.62401765873,0,2009,1450,2
-350.679125079758,42.54438636218387,102.59734873634888,409717.27583845286,169609.9926774461,224107.68155239912,0,2009,1450,2
-337.3682185867064,57.51983322917704,117.64128185679837,412500.61220204184,173622.42281940771,235055.3916089803,0,2006,1456,2
-327.9878921092143,72.36538504468169,133.51961673748278,415187.9685551176,177693.5919608852,246085.5152242671,0,2010,1451,2
-322.59976194565365,87.00392263551925,150.18134165978995,417765.29663527495,181809.77226182568,257163.29278944156,0,2008,1452,2
-321.2362767172265,101.35632956429077,167.56310734793277,420220.4887445121,185954.30223061063,268254.5413240499,0,2008,1452,2
-323.89949845339805,115.33977073060647,185.58949363483734,422543.3395900005,190107.76624091802,279325.9403772477,0,2008,1455,2
-330.5606715083739,128.86232435428332,204.18209273569613,424725.74285863375,194248.78937871408,290345.6614300594,0,2010,1454,2
-341.1604985888106,141.8162213514171,223.2690304224187,426761.97259620496,198354.84697158408,301283.83878642647,0,2010,1452,2
-355.6099693740133,154.07490682126056,242.79022851543795,428649.02507236315,202402.62682221393,312112.47759370646,0,2008,1450,2
-373.7914330440658,165.49649064522566,262.70051195625564,430387.1617508111,206368.17176495126,322805.15894703334,0,2010,1451,2
-395.55939817156917,175.9310971083702,282.97102816759997,431980.37799587316,210226.89938782557,333336.47826359206,0,2008,1453,2
-420.7410449297591,185.23064376198909,303.5872210911083,433436.3168825214,213953.48833270857,343681.18277821253,0,2008,1454,2
-449.13719025740664,193.2609199345106,324.5435001735059,434765.54875968216,217521.82690020092,353813.5656694369,0,2008,1452,2
-480.5228861023367,199.91189877704315,345.83636173721356,435980.489354477,220905.02236016147,363707.1223168178,0,2009,1452,2
-514.6476933441309,205.10336526268995,367.4571829213692,437094.03744492633,224075.53395166754,373334.36714694364,0,2008,1452,2
-551.2378616934709,208.78754313985002,389.38427470665084,438117.7131136209,227005.79424764588,382667.324682336,0,2008,1452,2
-589.999638960534,210.94955437040028,411.5744778570468,439059.50721292297,229669.27134131177,391678.58398372476,0,2008,1454,2
-630.6225631103923,211.6047439582159,433.95650285511425,439922.09882511565,232041.45543053278,400342.03677632584,0,2007,1451,2
-672.7859858710407,210.79213733534823,456.4278846348039,440701.57108927506,234100.75307416017,408633.272936111,0,2005,1454,2
-716.1690677317326,208.56532629579803,478.85543383425295,441386.3033132932,235829.63703166056,416530.1976486263,0,2009,1451,2
-760.4587427923192,204.98398906561286,501.07730545972896,441956.13523184415,237215.78797196856,424013.53125342325,0,2007,1453,2
-805.3548377665354,200.10612764991728,522.9067935923788,442382.25858955766,238252.8591662804,431066.8208969975,0,2008,1455,2
-850.5762270531297,193.9790023979125,544.1395062715465,442627.98630177206,238940.98126411368,437676.35513849347,0,2009,1451,2
-895.8663739272299,186.6306265663721,564.5619516709216,442650.0826987955,239286.97097335817,443831.01644829,0,2009,1452,2
-940.9954258004478,178.0643151100039,583.9606413115467,442400.61622239364,239303.9216943715,449521.91035598406,0,2009,1452,2
-985.760618472583,168.2558940480188,602.1335891376859,441829.53104704956,239010.13090170868,454741.9845067296,0,2009,1452,2
-1029.984958241326,157.15319514901378,618.900756846017,440887.36914862884,238427.74768927798,459485.61143163283,0,2008,1453,2
-1073.5131142900714,144.67738599530523,634.1088823549231,439527.74492223054,237581.25241163195,463747.9761263219,0,2007,1453,2
-1116.206085867084,130.7251959544446,647.6317469016949,437709.9479527409,236495.5707938732,467524.38591115474,0,2008,1451,2
-1157.9352135940242,115.17244293936464,659.3676137650588,435401.4090064434,235194.2551288137,470809.5872959343,0,2008,1452,2
-1198.5755251567684,97.8808774198086,669.2342273824937,432579.55035878904,233698.2318001592,473597.0775936246,0,2008,1453,2
-1238.0000233609287,78.70930666839767,677.1631890989921,429233.2368962247,232024.97688267063,475878.46261782764,0,2009,1457,2
-1276.075626689149,57.52613598811505,683.0962847586565,425363.88705232146,230188.09482202202,477642.9122756203,0,2009,1451,2
-1312.660977420863,34.220477534035446,686.9847029126979,420985.889780131,228197.4153091549,478876.77661046834,0,2010,1447,2
-1347.6066949377478,8.7122151862199,688.7900852063324,416126.2466068576,226059.44167024473,479563.43259708973,0,2009,1452,2
-1380.7563105570562,-19.039139275549744,688.4857190898211,410823.8365453256,223777.99187928156,479683.3346139599,0,2004,1455,3
-1411.9468849613004,-49.02817477074024,686.0576667440881,405128.3361239103,221355.1246842637,479214.2742772667,0,2006,1457,3
-1441.011055258417,-81.19960515486869,681.5074155329149,399098.51481328066,218792.42465838286,478131.9234095126,0,2008,1453,3
-1467.7800108591723,-115.44527871549725,674.8565614038446,392800.4597637748,216092.34991047648,476410.55565411464,0,2005,1458,3
-1492.0866036841965,-151.6023055763317,666.1527077872821,386305.96273885196,213259.27672303934,474023.84055368206,0,2000,1462,3
-1513.7694317694045,-189.45258073613738,655.4759455292383,379690.1429784529,210300.09055409677,470945.8293637655,0,1990,1467,3
-1532.6764456358067,-228.7218902254776,642.944376805554,373028.40800879686,207224.26454198483,467152.1606272336,0,1992,1469,3
-1548.6682990328175,-269.07831251012385,628.7164563525802,366394.1453611904,204043.56506585158,462621.2955628754,0,1982,1474,3
-1561.6245419755046,-310.1316073091245,612.989414935036,359857.3490621861,200771.40579220527,457335.65062470443,0,1973,1486,3
-1571.451587494848,-351.4330337829816,595.9951369543427,353483.3212080916,197421.7245254977,451282.65351889626,0,1955,1497,3
-1578.0903216793636,-392.4767259159754,577.9935173293915,347331.53635781404,194007.79501160738,444455.7802024483,0,1944,1503,3
-1581.52412593263,-432.705733225836,559.2620706023567,341455.08383658365,190541.4042391455,436855.6065979029,0,1929,1523,3
-1581.7858506375617,-471.5195412132679,540.084990847348,335900.4159439628,187032.26527657564,428490.87162334856,0,1920,1524,3
-1578.9601953838655,-508.2780225140028,520.7434515692646,330706.9130462775,183487.42026922596,419379.33623218944,0,1927,1523,3
-1573.179895368761,-542.3018934097614,501.5029758314668,325905.89696191595,179910.55827030438,409548.25844663364,0,1917,1538,3
-1564.6196187399673,-572.8737888159087,482.59701449512517,321519.2855223184,176301.58873238324,399034.8532745529,0,1910,1533,3
-1553.4938525600662,-599.2518150916371,464.20832410250836,317558.07219258137,172657.10664552887,387886.9591136292,0,1916,1530,3
-1540.0562903140674,-620.7028014173862,446.4510951675603,314020.52011135657,168972.06437708967,376163.55561246653,0,1906,1540,3
-1524.5930175002713,-636.5414554379868,429.3626427015217,310890.7747739173,165242.4390018208,363935.05754330807,0,1922,1530,3
-1507.4084911894233,-646.1657095209185,412.91336397751724,308138.87845932983,161468.81583454818,351283.1145821889,0,1914,1537,3
-1488.8120853935068,-649.0953620713541,397.03715000556275,305722.33598640724,157660.74525102845,338299.5252277008,0,1918,1535,3
-1469.1127692790387,-645.0072308379368,381.67209277849736,303588.64577645244,153840.3036723515,325085.06204076845,0,1916,1536,3
-1448.6178497001324,-633.7517226235683,366.79204622281014,301678.3634043571,150042.36263148778,311748.30649053806,0,1914,1533,3
-1427.6296341337393,-615.3573797321399,352.41463252385995,299928.7223580832,146310.71098532394,298403.335691786,0,1919,1528,3
-1406.4409124414542,-590.0378395304175,338.586341162818,298277.2958311583,142692.15515873744,285166.83006725134,0,1935,1510,3
-1385.3271315311895,-558.2013207524531,325.35581662664896,296665.26609111164,139230.9954299253,272155.32426322723,0,1927,1522,3
-1364.534598609554,-520.4548117006033,312.7432262496967,295040.4564453746,135964.640765972,259481.91642134267,0,1921,1533,3
-1344.2711080065035,-477.598227033199,300.7145099456634,293359.71755411406,132921.39594587588,247253.12454414074,0,1956,1494,3
-1324.698752394225,-430.60469544396597,289.1725589122406,291590.45126442646,130121.23013334205,235566.43465463317,0,1961,1491,3
-1305.9244300500302,-380.58765240924964,277.96697819679457,289711.7699657931,127578.42691133746,224507.63097446683,14,1977,1478,3
-1287.9925393952515,-328.76788030537625,266.91538434011835,287715.27092112246,125304.23390458936,214148.60605290625,93,1976,1474,3
-1270.8863851251747,-276.44425037031635,255.8348221943014,285604.7423617974,123308.5127058061,204546.6106144751,294,1988,1471,3
-1254.5370412427803,-224.9572651847973,244.58337677834535,283394.50517492124,121600.56275119788,195744.14109681643,749,1989,1470,3
-1238.8351219131346,-175.64270424542553,233.09390177508888,281107.14017946844,120189.31448894215,187769.0533892987,1127,1995,1466,3
-1223.6462768845465,-129.75638828787572,221.3720992490435,278771.6086200961,119082.10448396551,180634.97941710136,1619,2002,1460,3
-1208.8331910479797,-88.34766834050347,209.45655544456852,276422.42848366976,118281.38964930658,174341.6073973374,1751,1996,1464,3
-1194.2768184327067,-52.1249466057359,197.37164718929077,274100.6902583552,117780.61062130153,168874.71715065505,1945,1993,1467,3
-1179.8885909869457,-21.386984091015517,185.10840401082828,271857.37922889815,117561.19674658825,164206.28071697248,2075,1986,1475,3
-1165.6207082606852,3.953066717475729,172.64633533076935,269757.76214607054,117591.81456840079,160295.0727058928,2200,1987,1474,3
-1151.4818755327765,24.27292601350349,160.0030625227134,267883.1155088645,117830.45191121467,157088.51391044346,2191,1981,1472,3
-1137.54981052429,40.111791426444626,147.28168684681998,266324.6208733855,118229.76554045713,154526.5755894047,2163,1989,1468,3
-1123.9654948508808,52.04720849023661,134.67829264333335,265168.3324675523,118744.02903393282,152547.41530325805,2078,1990,1466,3
-1110.9047631213823,60.62858833688583,122.43559985747487,264479.03668645216,119333.58546263186,151092.23128286164,2038,1994,1463,3
-1098.542303494855,66.37281178928913,110.78413603258927,264292.3478513687,119965.33493295436,150107.19694609602,1985,2009,1454,3
-1087.0244220443053,69.77347419058003,99.9173496864036,264616.4633868991,120611.8431864595,149542.95136815615,1971,2012,1451,3
-1076.451968876037,71.29688450002536,89.99700376389643,265438.8430999,121250.98009344908,149353.23231516112,1956,2006,1456,0
-1066.8724861527403,71.37198270545805,81.16307660370754,266732.2965491201,121865.87819102537,149493.92904704448,1956,2010,1454,0
-1058.2827219616272,70.38094447679205,73.53180210175856,268458.37694008136,122444.48575535683,149923.08643271212,1946,2012,1453,0
-1050.6388756479723,68.65052944992041,67.17922214668326,270569.61684900086,122978.44863453582,150601.55334774245,2023,2010,1452,0
-1043.8691657108282,66.44607353888462,62.12194215117472,273011.68395889597,123461.91463633855,151493.67301739965,2054,2011,1454,0
-1037.885194027944,63.972928935656036,58.309881897307775,275725.6968065957,123891.05686259299,152567.66278700234,2066,2022,1452,0
-1032.5930041355,61.385201097175816,55.635731273999376,278651.19267143006,124264.45389958462,153795.68343304168,2096,2025,1453,0
-1027.9037709887402,58.79587412435013,53.954480479284555,281729.1151636965,124583.74169115264,155153.6198360539,2082,2032,1455,0
-1023.7421732387154,56.284622296683395,53.10386183698384,284904.07320511766,124853.64938420783,156620.46582491492,2135,2037,1451,0
-1020.0522251817437,53.90324256281213,52.92001568697058,288126.2066458506,125080.96125184614,158177.36387401595,2168,2057,1450,0
-1016.7994058010281,51.67881082548619,53.245120132577,291352.5694428545,125272.88781307402,159806.6777234596,2204,2047,1452,0
-1013.9656962692948,49.616478371230436,53.92936171836531,294547.72394498705,125435.62265056623,161491.45884797483,2244,2047,1452,0
-1011.5372259284677,47.704432560873364,54.83363963903798,297683.8716836676,125573.40404386341,163215.2967534039,2280,2065,1449,0
-1009.4916004670368,45.91974834492564,55.83401255855051,300740.61962805054,125688.16221634677,164962.33115635527,2309,2058,1453,0
-1007.7930695392558,44.23307085046,56.82509262060399,303704.1089044596,125779.77378996558,166717.3658770356,2364,2069,1449,0
-1006.3959139872436,42.612842979765794,57.72281445649779,306565.5413797847,125846.77024359377,168466.1524779768,2348,2047,1450,0
-1005.2508656564752,41.02961935106406,58.46818117879753,309319.5572386641,125887.18126408121,170195.71681485226,2354,2054,1451,0
-1004.3109543167946,39.45988383390609,59.0306662280218,311962.7764543878,125899.26183935122,171894.60455046262,2359,2047,1449,0
-1003.5360686972398,37.88932302801643,59.408458607331994,314492.46398368117,125882.03198925032,173553.102991767,2364,2054,1453,0
-1002.8952773155956,36.314783903920954,59.624125567767095,316905.4018177865,125835.53691653612,175163.36787505902,2310,2054,1451,0
-1002.3654582211847,34.743245038791834,59.7160684431673,319197.16964819486,125760.83101318545,176719.3735217837,2259,2057,1450,0
-1001.927020891296,33.187962881651764,59.72824438175472,321361.90518373105,125659.90522696369,178216.8117499747,2189,2046,1452,0
-1001.5602064115591,31.66417491995242,59.70241742468175,323392.4843797037,125535.71548774913,179653.00737811773,2112,2044,1455,0
-1001.2451567297911,30.185468520953265,59.67412182295176,325280.9089252997,125392.2203952255,181026.76222720105,2065,2047,1451,0
-1000.9654626858107,28.759995942621956,59.669812251351495,327018.91232679406,125234.17429502455,182338.06660194436,1977,2047,1451,0
-1000.7120620432822,27.386747207156272,59.70445730719843,328598.95774064434,125066.57816694227,183587.7263450976,1885,2066,1452,0
-1000.4849470182559,26.052870156404573,59.78062848831158,330015.2860079456,124894.03286348609,184777.0111600501,1816,2076,1451,0
-1000.291946756607,24.73341709293515,59.8888405686451,331264.6341866634,124720.22023810657,185907.40345398328,1766,2060,1452,0
-1000.1451337751188,23.395033561017392,60.00788437036789,332346.7438016185,124547.49693546578,186980.44907637005,1602,2046,1453,0
-1000.0567942445458,22.00193418077212,60.10508699155448,333264.69111786573,124376.63593662379,187997.65110825497,1556,2056,1449,0
-1000.0366467705209,20.52120004103581,60.13884679651746,334024.8862522538,124206.84051389885,188960.38229867068,1471,2069,1451,0
-1000.0903742754065,18.927043289427075,60.0651233185704,334636.7432622955,124036.03089689394,189869.8350465051,1427,2082,1449,0
-1000.2191993089717,17.204125838345547,59.8454270127746,335112.10819120763,123861.26132112113,190726.9832968217,1298,2082,1452,0
-1000.4204480665743,15.34932153558828,59.453251725771736,335464.4189898402,123679.1617382605,191532.54437295647,1286,2084,1450,0
-1000.6888082701604,13.371991833158734,58.87864952838199,335707.5962871289,123486.39001882834,192286.979912154,1119,2082,1455,0
-1001.0176119809652,11.29300317986262,58.13055147710124,335854.9775758915,123280.01051161424,192990.5242780068,1026,2093,1456,0
-1001.3994749752801,9.14174793168504,57.235510835908045,335918.5231464378,123057.72656688787,193643.2380049808,910,2102,1453,0
-1001.8262404935431,6.950629134153338,56.2333623131165,335908.1846468066,122818.02692000072,194245.1283893579,789,2111,1454,0
-1002.2886171845518,4.74898480417998,55.17233569317867,335831.4572300767,122560.2904293565,194796.30088074508,749,2100,1457,0
-1002.7759146522146,2.558694501674525,54.1046868448409,335693.2708549092,122284.8224922801,195297.114307573,677,2112,1458,0
-1003.2761329836197,0.39138205301377815,53.081751864858816,335496.20555732195,121992.80593127204,195748.37060802718,625,2102,1453,0
-1003.7764085386941,-1.7531781946967326,52.148828702715676,335240.9026621045,121686.19024051997,196151.4703455092,587,2133,1461,0
-1004.2637248123929,-3.887574394125342,51.34121455666988,334926.6610155227,121367.52133412473,196508.45179570623,540,2141,1467,0
-1004.7257170126802,-6.0366981102367285,50.68147008708217,334552.2529256044,121039.70574722142,196821.9509865663,505,2114,1463,0
-1005.1512651464468,-8.236775750241856,50.17854577378811,334116.75370711664,120705.81038015208,197095.1342822322,468,2132,1473,0
-1005.530891585741,-10.531959121379122,49.830211515939176,333620.19008507027,120368.99368081598,197331.595724336,455,2142,1471,0
-1005.8572332012689,-12.968240136544287,49.62818486471691,333064.0453244062,120032.51587341027,197535.20089917324,431,2138,1477,0
-1006.1254561688598,-15.587371726142997,49.56267790866696,332451.5910516902,119699.73271971419,197709.906083433,367,2142,1495,0
-1006.3333070718471,-18.423101773018413,49.62424889233894,331787.93293477845,119373.99856497184,197859.59965280673,334,2144,1501,0
-1006.4809218157264,-21.499376845834753,49.804406303785484,331079.8046566641,119058.463166902,197987.9803988486,312,2149,1525,0
-1006.5706472185029,-24.829477866111198,50.09660064929232,330335.2686761579,118755.87474786877,198098.4780121077,283,2156,1671,0
-1006.6067949424295,-28.415654275925995,50.49681577242068,329563.35279462923,118468.47697335864,198194.2203027278,231,2146,1516,0
-1006.5952603538916,-32.24948148622486,51.00260974202832,328773.56225758046,118197.94962533157,198278.04081807815,174,2148,1519,0
-1006.5432330142128,-36.31320883327462,51.61110160539395,327975.42602428794,117945.35146388372,198352.5030264571,144,2159,1673,0
-1006.4592251551117,-40.58212647819335,52.31721670860226,327178.2293871929,117711.08575430226,198419.90224974835,82,2176,1682,0
-1006.3534701453001,-45.02770043795587,53.112874145715075,326390.8484489311,117494.90604163874,198482.2365624925,93,2167,1696,0
-1006.2383276229162,-49.62020890358123,53.98721122241084,325621.63129776466,117295.9745226819,198541.16047994845,103,2163,1702,0
-1006.1280504640762,-54.32993517092429,54.927779704055055,324878.32727280736,117112.97169635586,198597.91285920553,111,2141,1586,0
-1006.0379377398548,-59.12729826937467,55.922193938936545,324168.0196720751,116944.22044414327,198653.21398108988,80,2152,1733,0
-1005.9835400685985,-63.98230248644454,56.95940332883174,323497.0194994819,116787.77626723051,198707.15189396017,64,2177,1723,0
-1005.9802890183528,-68.86366025533331,58.03014987997811,322870.7053843246,116641.47135209493,198759.09158671243,44,2191,1730,0
-1006.043440169122,-73.73841155476387,59.126827350590425,322293.3750880848,116502.93983851097,198807.65174926756,15,2181,1747,0
-1006.1879784637034,-78.57311755418841,60.24349368646883,321768.16674168827,116369.66930481975,198850.78841714337,14,2217,1735,0
-1006.4282951661577,-83.33688979676765,61.37652031837887,321297.0182172051,116239.11249371634,198885.97478259783,35,2204,1737,0
-1006.7779411625689,-88.00437413730528,62.52558500202661,320880.67096776,116108.83166446717,198910.3904256523,14,2196,1743,0
-1007.2498953315501,-92.55663407490833,63.6947009617322,320518.76241981285,115976.60553682216,198921.0476184427,5,2235,1727,1
-1007.8572647288869,-96.98024672637666,64.89305471110366,320209.97937190003,115840.46278977342,198914.86513322665,7,2225,1741,1
-1008.6138916233599,-101.26580707034533,66.13504916914417,319952.2036097605,115698.64614841052,198888.6951126637,0,2205,1757,1
-1009.5345833761951,-105.40608447041517,67.43904137890712,319742.6270174028,115549.50445942351,198839.27531839607,0,2186,1770,1
-1010.6349621745334,-109.3939675630688,68.82505301384192,319577.85603720543,115391.32740077942,198763.13295365951,21,2235,1774,1
-1011.9310519497473,-113.2210292969752,70.31253436297003,319454.0044494834,115222.20563645022,198656.53094639868,0,2254,1769,1
-1013.438920475781,-116.87735639496552,71.9191550246825,319366.76023477205,115039.99554210073,198515.514392432,0,2272,1764,1
-1015.1744669652268,-120.35228360267611,73.66084485796155,319311.43904465984,114842.38730800497,198336.01416403742,0,2265,1790,1
-1017.1531910956082,-123.63537878688538,75.5526396182236,319283.03876048897,114627.02578480558,198113.91668255164,0,2335,1776,1
-1019.3900605714693,-126.71734637795659,77.60959146903474,319276.29147864995,114391.6355561112,197845.06019550373,0,2265,1808,1
-1021.8997550514837,-129.59031579887292,79.84732604269638,319285.70744191675,114134.11206624434,197525.18256386503,0,2298,1807,1
-1024.6980998387355,-132.2477578139527,82.28083709073448,319305.61762303126,113852.49986681722,197149.83243410103,0,2295,1815,1
-1027.8057436394874,-134.68590472561337,84.91887819205483,319330.2325046408,113544.79821881086,196714.2430574454,0,2265,1841,1
-1031.2511849321843,-136.90652840442593,87.75520732172663,319353.7890292922,113208.6432332901,196213.24869555002,0,2259,1866,1
-1035.0675730485448,-138.91774320373068,90.76285492641651,319370.9701769517,112841.01699219758,195641.31331976602,0,2165,1923,1
-1039.2852059881002,-140.73186940175347,93.89529979830571,319377.62462559564,112438.27797282854,194992.58251667634,0,2190,1922,1
-1043.927630612179,-142.3627787781955,97.09297868725088,319371.38624312653,111996.6710422019,194260.8681702705,0,2210,1908,1
-1049.013387414745,-143.8238578981131,100.29220708200658,319351.7928797482,111513.02955653211,193439.6067762832,0,2184,1925,1
-1054.559177614054,-145.12606424199222,103.43376516264779,319320.0035529683,110985.25868648847,192521.84964179472,0,2066,1846,1
-1060.5810076973,-146.27674189195108,106.46785496227457,319278.51362061664,110412.42281032781,191500.32734242317,0,2110,1997,1
-1067.093374655211,-147.2806805532936,109.35495894609666,319231.0849477912,109794.52083102995,190367.6173091869,0,2070,1874,1
-1074.1084565105239,-148.14255943242617,112.06523450954158,319182.7799609323,109132.2059433447,189116.38400801725,0,2059,1915,1
-1081.6370990310538,-148.86769558548409,114.57803263594971,319139.927474646,108426.67009005306,187739.6288827893,0,1959,1979,1
-1089.691689624851,-149.45989079081983,116.88152038287224,319110.00512704795,107679.68686186991,186230.90686572733,0,1949,1988,1
-1098.2880241118946,-149.91807623462276,118.97201003890949,319101.5174584439,106893.6546635184,184584.52287261936,0,2004,1996,1
-1107.4432852317996,-150.2341642835342,120.85267626035086,319123.9254765785,106071.51911436192,182795.75111642905,0,1864,2067,1
-1117.171709431738,-150.3942096223179,122.53201018685526,319187.5980218095,105216.61262673335,180861.09599993852,0,1761,2094,1
-1127.4814729871177,-150.38226554499127,124.02310778709248,319303.7011407535,104332.60595043124,178778.5580602902,0,1743,2150,1
-1138.3736783063382,-150.1828949839633,125.34490184452311,319483.9433767543,103423.67965354687,176547.7444882223,0,1691,2170,1
-1149.842568596985,-149.7801974428078,126.52514722288566,319740.18186866725,102494.79946962577,174169.72249271517,0,1610,2191,1
-1161.876073679711,-149.15536335084946,127.60313354155075,320084.0238254466,101551.89148622515,171646.80117340013,0,1588,2229,1
-1174.4562329534401,-148.28527633525212,128.62960219727114,320526.4649239273,100601.70311258582,168982.36026754472,0,1540,2251,1
-1187.5595917636788,-147.14293067008012,129.6628820465312,321077.48041215574,99651.2979676462,166180.64447572234,10,1490,2304,1
-1201.1569859337847,-145.69893250307197,130.76273268048624,321745.6265688931,98707.47289307106,163246.62878604166,13,1459,2339,1
-1215.2122509478245,-143.92338095265058,131.98354349336782,322537.7971108461,97776.34044239443,160186.02793437752,0,1386,2347,1
-1229.6807189626559,-141.78851001652325,133.36734503072267,323459.1512824998,96863.0259687426,157005.30389505494,0,1332,2366,1
-1244.507993502343,-139.27203047672626,134.93797384148837,324513.12850187847,95971.48672269283,153711.67976246498,0,1312,2375,1
-1259.6285831376656,-136.3601331747906,136.6973463475189,325701.52403698146,95104.53509777047,150313.13687009827,0,1197,2419,1
-1274.9641248136406,-133.0495824522434,138.6231274926102,327024.6615022374,94264.01644338721,146818.235013199,1,1079,2458,1
-1290.4210637822714,-129.34878200369258,140.66799482095385,328481.5978605972,93451.06534570505,143235.90799944327,4,1027,2472,1
-1305.8878741111337,-125.27790743309217,142.76139980258952,330070.3100482624,92666.43923078926,139575.39858571443,0,978,2495,1
-1321.2323488252644,-120.86854548255829,144.81347489427304,331787.8903528599,91910.93275976308,135846.21517380554,0,954,2495,1
-1336.2999477527592,-116.1629561372396,146.72118135297535,333630.63917283015,91185.7854432851,132058.15888082323,3,830,2555,1
-1350.9139009386336,-111.21293753206693,148.37715817666802,335593.9430357745,90492.98905852267,128221.5383869389,0,841,2526,1
-1364.8765518354037,-106.07873990094463,149.67917808895504,337671.9878799027,89835.48823796435,124347.48727567625,0,815,2528,1
-1377.9723260622686,-100.82768290507326,150.53897413739526,339857.2957789854,89217.23461047267,120448.26313292622,2,790,2540,1
-1389.9733182567618,-95.53144614193145,150.89144852338924,342140.010057548,88643.0439632693,116537.4812472311,0,815,2547,1
-1400.6450793177733,-90.26259436280245,150.70188524252464,344506.97825419315,88118.30997326672,112630.38962228423,0,843,2525,1
-1409.7491045806782,-85.0917013177518,149.96686896958056,346940.66978909494,87648.54958362038,108744.26363062194,0,819,2535,1
-1417.0415373813482,-80.08584684842299,148.7087301025271,349417.9560756323,87238.73814090877,104898.83339594286,0,847,2500,1
-1422.2701473425132,-75.30973068679924,146.9676004436636,351909.050506964,86892.75066420385,101116.74861875629,6,844,2489,1
-1425.173719091396,-70.83130286796376,144.7947838905423,354377.0205891843,86613.3850184018,97424.08802902077,13,911,2462,1
-1425.486716851677,-66.73186952052032,142.24846507896527,356777.951534455,86403.04862558578,93850.78882293923,11,997,2383,1
-1422.948289695757,-63.11603975062835,139.39185254751538,359061.50704235205,86264.71069067858,90430.97405235955,8,1083,2292,1
-1417.3166104868967,-60.11439982601564,136.29165572778078,361172.0533419202,86202.68798227301,87203.09608132644,11,1168,2215,1
-1408.389888038049,-57.87527737322271,133.01300004331628,363050.7596476465,86223.0734279795,84209.6959936315,10,1271,2103,1
-1396.0273547951435,-56.54927680373967,129.61052540000998,364638.317028478,86333.7198972174,81496.84455873209,9,1395,2010,1
-1380.1624929511358,-56.27108078905653,126.11856013345367,365878.3118966161,86543.77650258076,79113.17742766498,0,1499,1913,1
-1360.8079922311645,-57.138996195024454,122.54353257156087,366721.7589135169,86862.98475102335,77108.30039508226,16,1578,1833,1
-1338.0538051914596,-59.19573869895653,118.86165260790499,367131.59344690846,87301.12082767666,75531.04554311589,9,1665,1763,1
-1312.0555932709042,-62.41378393589188,115.02373639069053,367085.8504364198,87867.87462021314,74427.91482932236,0,1720,1723,1
-1283.0120461781546,-66.68347029664882,110.96782130079293,366579.9671889413,88573.1257171889,73841.41477745601,0,1771,1699,1
-1251.1404951930438,-71.80677899689435,106.6359658096334,365628.36310836254,89427.29939062732,73808.61710679212,0,1816,1644,1
-1216.6607674224203,-77.50637416378021,101.99060026819555,364264.8234285144,90441.33696412262,74360.61903890697,0,1811,1644,1
-1179.7864061699584,-83.4514973235799,97.03126930471001,362541.85812333005,91625.93088043814,75522.83563774764,0,1818,1623,1
-1140.7227159405184,-89.28816200757696,91.80918832044149,360529.434624488,92990.0901746528,77315.58285220928,0,1850,1585,1
-1099.6737017543007,-94.66596479577761,86.43053597680886,358312.3373436979,94539.17506484204,79754.53415984275,0,1899,1545,1
-1056.854056035129,-99.26526728042842,81.04643646883682,355985.2946855679,96272.5535653364,82850.88055486757,0,1918,1527,1
-1012.5000702199435,-102.82178215810663,75.83645086700565,353647.12127428915,98181.67971053124,86611.128147698,0,1932,1517,1
-966.876505484789,-105.14253802415331,70.98734083429521,351394.8167976544,100249.67841632907,91036.67294698597,0,2002,1453,1
-920.2789160672581,-106.11495119228813,66.6654620452675,349317.1366065385,102452.71415233854,96123.42443146622,0,2011,1453,2
-873.033014873268,-105.70990169441342,62.99248288689328,347489.1030062761,104762.49702915005,101861.50440088614,0,2010,1452,2
-825.491165390157,-103.97573137364905,60.03730084526529,345969.3071462546,107149.73597655263,108235.05506790268,3,2007,1453,2
-778.0246854881505,-101.02314417607447,57.82397073421635,344799.37897071464,109588.57257503083,115222.27541262783,2,2008,1455,2
-731.0159180609835,-97.00650211780959,56.34647218940755,344004.56999419065,112060.36609778005,122795.47548985072,0,2011,1454,2
-684.8531090794341,-92.10354348756177,55.583455353975914,343595.41670839925,114555.0405724289,130921.25430710897,0,2012,1451,2
-639.9255885929657,-86.4913370241672,55.50993891760269,343570.45513712184,117070.17550883527,139561.26381592176,0,2012,1449,2
-596.6188239620872,-80.32371120190159,56.103299740138674,343919.1771473037,119608.9447987289,148673.2111892824,0,2010,1450,2
-555.306799179084,-73.71597339921591,57.34426830052475,344624.77561818314,122177.60642687048,158211.8481517735,0,2006,1453,2
-516.337716023837,-66.735281151792,59.21741948336115,345666.9350934445,124782.95212953992,168130.31802908017,0,2009,1451,2
-480.0198195940489,-59.398167984126985,61.71279603872028,347024.0710478288,127430.4311807282,178381.3401251928,0,2010,1450,2
-446.61608404145744,-51.68179629179025,64.82652586416616,348674.17073690856,130123.5453610944,188917.8140252048,0,2009,1449,2
-416.3464614184772,-43.54796863619128,68.55909643744604,350594.49338567496,132864.2609857327,199693.3906133589,0,2010,1450,2
-389.3930050315154,-34.9675164432488,72.9130545485456,352760.8883735822,135653.7051075361,210662.83308002155,0,2009,1453,2
-365.90516893720803,-25.93520517488574,77.89321057101776,355147.37266238936,138492.80663269936,221781.92102343167,0,2010,1450,2
-346.00544482926557,-16.475455147288564,83.5097884888121,357726.2275674504,141382.9286531513,233007.46566692102,0,2009,1451,2
-329.7958793568926,-6.641381944988655,89.78102620403978,360468.3254767949,144326.20968385055,244297.36555180562,0,2009,1450,2
-317.3627005258834,3.491402859941273,96.73195713589973,363343.4616887622,147325.28268759284,255610.55400660058,0,2005,1452,2
-308.7773172437521,13.833470208723519,104.39054742439005,366320.817308476,150382.56095775508,266907.3316780236,0,2004,1454,2
-304.09458377397993,24.29025649000034,112.78502596916653,369369.4293373706,153499.46987700075,278149.8221113796,0,2005,1455,2
-303.34884948489895,34.76963120533885,121.94435615704688,372458.4303476872,156675.86592020356,289302.28776733985,0,2009,1455,2
-306.5494292146471,45.18582520830239,131.90006265919132,375557.1341770768,159909.69165631963,300331.7870620017,0,2006,1455,2
-313.6774553249676,55.45703457929621,142.6859663411111,378635.0616654834,163196.7327958135,311208.8396004116,0,2008,1452,2
-324.68388220027174,65.49808427741297,154.3346826338597,381662.00061150047,166530.37439976362,321907.5183065824,0,2008,1453,2
-339.4883395372983,75.21321692043512,166.8737547842952,384608.2399827237,169901.40004584804,332405.1612544093,0,2009,1454,2
-357.9801436297585,84.49434050048738,180.32478903276035,387445.05370449595,173297.9806561149,342681.9534115173,0,2008,1451,2
-380.02157746650556,93.22613463445418,194.7039124882804,390145.35555698484,176705.89175040103,352720.46519269503,0,2009,1451,2
-405.4506382624711,101.2941154523252,210.0188634403558,392684.1240996755,180108.65870620694,362505.02743998513,0,2009,1450,2
-434.08202321288235,108.59172029592219,226.2614927127732,395038.4063173153,183487.4697570363,372021.06937866384,0,2009,1453,2
-465.70812842560105,115.02540516302129,243.39840623103126,397187.2122388224,186821.12432008274,381254.8784284588,0,2008,1451,2
-500.10051562496847,120.51670618586174,261.3641827746931,399111.4765209108,190086.19384064825,390193.5434816062,0,2009,1452,2
-537.0126138570919,125.00056204155399,280.06088309893244,400794.0146797565,193257.5713837594,398824.75073648617,0,2008,1453,2
-576.1848963153113,128.42134673079417,299.36286043726255,402219.4192349957,196309.5271321258,407136.64383789245,0,2008,1451,2
-617.349438511566,130.72867535530264,319.12144418398066,403373.841785218,199216.75144795238,415117.6040901455,0,2008,1451,2
-660.2319984999432,131.87377172635277,339.1669260158089,404244.71843695984,201955.03503477215,422755.90156396525,0,2008,1452,2
-704.554367182421,131.8062617245584,359.3103299759785,404820.607706935,204501.90923031757,430039.64485998906,0,2009,1451,2
-750.0367526647818,130.472259994595,379.34639497016536,405091.190729612,206837.2864483479,436956.87505300937,0,2009,1452,2
-796.3992003959863,127.81489889732035,399.0581712924747,405047.3919487857,208943.99632609574,443495.49822999066,0,2008,1452,2
-843.3638760042958,123.77640086277738,418.22382353841425,404681.6065461273,210808.3884018345,449643.2545795161,0,2008,1451,2
-890.6572664977062,118.2994302480517,436.62319559334827,403988.0119203122,212420.87213304668,455387.6765308842,0,2007,1453,2
-938.0116897354242,111.32634464327043,454.0434482040173,402963.01940605114,213776.1570051681,460716.00203919876,0,2008,1453,2
-985.1680448282356,102.79697380670723,470.28662703669295,401605.9536599661,214873.2130064711,465615.3910104152,0,2008,1452,2
-1031.877905952374,92.64738870475755,485.1782421096642,399919.80882390344,215714.93639441853,470073.32223070576,0,2009,1455,2
-1077.9033949782834,80.81169517172592,498.57483842575095,397911.811371978,216307.53131819455,474077.6365400479,0,2007,1455,2
-1123.0176037789054,67.22600889832604,510.3703935587251,395593.6345296595,216659.59718467726,477616.1530209717,0,2008,1453,2
-1167.0056572874587,51.832309420413324,520.498546687814,392981.27185100905,216780.88401589793,480676.17384504544,0,2008,1453,2
-1209.6635607321534,34.580981514666995,528.9287537682866,390094.78351280116,216681.0687612345,483244.04677748587,0,2005,1454,2
-1250.7958678634386,15.43102532846415,535.658458508546,386958.0248628727,216368.93313802572,485304.864254031,0,2008,1452,2
-1290.2156279013427,-5.652616421135812,540.7034552906499,383598.291306022,215851.91102813758,486842.3966487691,0,2006,1453,2
-1327.7458096677137,-28.701874084924377,544.0896451983455,380046.0798984911,215135.93312674604,487839.17694608466,0,2008,1452,2
-1363.2198732286397,-53.74445875532944,545.8494893358863,376335.15115430456,214225.54386650675,488276.6523958432,0,2002,1456,3
-1396.4819285270498,-80.79763700221339,546.0226857111286,372502.72662025475,213124.15319795263,488135.45628980256,0,2008,1453,3
-1427.3861552017167,-109.85855421193239,544.6583048565122,368589.68608660484,211834.28935597365,487395.71855325747,0,2006,1454,3
-1455.7951823615956,-140.89406247907957,541.8167957448352,364640.50320387626,210357.81225502602,486037.28061384405,0,2006,1455,3
-1481.5789189481604,-173.83310707499382,537.5719717606137,360702.59755842824,208696.12678952268,484039.85906325927,0,2010,1451,3
-1504.6138642355913,-208.56237555254413,532.0127761429229,356825.3430097239,206850.45934211195,481383.28889628564,0,2011,1451,3
-1524.7833012546278,-244.92329738987846,525.2438336210306,353058.85198881326,204822.1985615922,478047.95538861793,0,2008,1453,3
-1541.9800462210385,-282.7094682616295,517.3850368799207,349452.33294914797,202613.23428551707,474015.4479371655,0,2009,1452,3
-1556.1109888192416,-321.66443946726565,508.5716448764113,346052.5399094053,200226.24440574733,469269.36149062973,0,2000,1463,3
-1567.1032048404861,-361.4799839016678,498.9546932785796,342902.6659631994,197664.85686923694,463796.1224754936,0,1995,1463,3
-1574.9126779060698,-401.7956299905117,488.6996531301839,340041.195286185,194933.62318191992,457585.7845550449,0,1998,1466,3
-1579.532739899726,-442.1987531938521,477.9821140551412,337500.72437849914,192037.91342202597,450632.88252208085,0,1993,1470,3
-1580.9989854995092,-482.22567712715295,466.9793860302013,335307.00747422455,188983.78285862165,442937.41382334736,0,1968,1483,3
-1579.3909428461577,-521.3655459880443,455.8585185095904,333478.0578129443,185777.74390978608,434505.9122470657,0,1973,1482,3
-1574.8308272292645,-559.0640951937725,444.7660149961472,332023.4500281209,182426.6464726606,425352.6033508162,0,1970,1486,3
-1567.479588475453,-594.7250462957811,433.82169843197215,330943.9679732247,178937.8676872394,415500.4489212999,0,1965,1491,3
-1557.5329840843879,-627.7121765812262,423.1128277312906,330231.2571913588,175319.6796280835,404981.8413945761,0,1961,1493,3
-1545.2214996241855,-657.3545336534266,412.6878112128166,329867.342936671,171581.73144131518,393839.17357394734,0,1955,1497,3
-1530.8122002303185,-682.9594422583799,402.5544254709617,329824.1585123765,167735.824257399,382125.23730056017,0,1958,1496,3
-1514.6040028144123,-703.8370602743354,392.68619765047384,330063.1785121916,163797.08402975946,369902.9998352596,0,1962,1491,3
-1496.916432770872,-719.3292531564923,383.03374919082654,330535.37831217656,159785.36308003176,357245.14960116975,0,1970,1487,3
-1478.0808656159843,-728.8393035266281,373.53738380355975,331182.05379190535,155726.43612714822,344233.71016243036,0,1969,1485,3
-1458.432445696042,-731.8658736056794,364.1462035399048,331936.82189719315,151652.49136782,330959.2915537777,0,1964,1490,3
-1438.2968954376636,-728.0331114274459,354.8391718160212,332728.1063993254,147601.60692714292,317520.2791544454,0,1964,1493,3
-1417.9762680795357,-717.1092269254561,345.62711385176704,333481.49208394036,143615.6799174272,304021.7484482329,0,1962,1490,3
-1397.7384888116883,-699.0200423538929,336.53315537422935,334122.3274559104,139736.64790269575,290573.1328289505,0,1968,1487,3
-1377.8126957874847,-673.8656378319686,327.5687485992273,334578.444065345,136002.82717288067,277285.4929763373,0,1965,1492,3
-1358.3914888205056,-641.9403738654146,318.71464088525033,334782.3915442373,132447.32530792867,264269.5704694021,0,1972,1487,3
-1339.6369439591758,-603.7473512669852,309.91104283265514,334673.23939736694,129098.29742931752,251634.1314232219,0,1966,1487,3
-1321.6836449618418,-559.9938564933851,301.06163303932766,334198.31565224315,125980.18902826974,239483.37457965684,0,1965,1487,3
-1304.635630920653,-511.5652486195599,292.0498321795481,333315.21315663843,123115.38383047133,227912.91437550882,0,1966,1487,3
-1288.5607925773145,-459.49321749396114,282.7582351001322,331993.8504193577,120525.30600155622,217006.06381788605,0,1968,1489,3
-1273.4854534466617,-404.9290170623385,273.0816518452884,330218.0373488507,118230.144761819,206831.97587184657,3,1968,1485,3
-1259.3890682368276,-349.1154715807489,262.93163938027527,327986.45865451125,116247.31889001193,197444.94398820767,88,1987,1468,3
-1246.200760467677,-293.3584750109999,252.23877119286075,325313.1396276038,114589.87342671824,188884.35856857512,378,1996,1466,3
-1233.8001941122388,-238.99642186419632,240.96176689392811,322227.17878260766,113265.86420087032,181175.1983276223,688,2002,1463,3
-1222.0243874479047,-187.35361114139067,229.1020900353264,318771.5829851401,112278.60656304265,174328.39842652256,1402,2007,1457,3
-1210.6820872619019,-139.67470436579578,216.7090677175032,315001.69351505034,111626.86023340638,168341.0340150685,1869,2006,1456,3
-1199.576861322085,-97.025194780811,203.86219729217348,310984.1639371237,111303.62445128834,163196.38145481207,2194,2012,1453,3
-1188.5328161847694,-60.14334743225204,190.6352367487617,306797.796330581,111293.23245729711,158863.47288898358,2244,2013,1449,3
-1177.4110515028717,-29.305876679250453,177.07339207732412,302537.09839768556,111568.73941561724,155296.55638536645,2326,2008,1454,3
-1166.1189082429219,-4.30552093420501,163.22317474233552,298315.79256203084,112091.99426182304,152435.83657385493,2372,2011,1451,3
-1154.6238204692434,15.428644159420687,149.20467503899766,294263.31758293847,112817.23295796178,150211.01427074373,2374,2012,1451,3
-1142.9658852235093,30.633921586732512,135.25486549298859,290510.85600223363,113696.72448770633,148547.6536505107,2300,2011,1451,3
-1131.2537070896283,42.05341606019674,121.69994788608952,287173.6805796797,114684.9338909112,147373.74794890752,2207,2011,1454,3
-1119.6407381121192,50.36472975113575,108.8824400467381,284338.9228735333,115739.40610416244,146624.188275975,2156,2010,1451,3
-1108.290700425987,56.1629183749371,97.08501688577199,282060.8498072562,116820.34845236324,146243.1706454893,2150,2010,1453,3
-1097.3478863182545,59.95738877942792,86.48760140879624,280361.92638655,117891.34638888585,146184.79173204582,2114,2010,1450,0
-1086.9234956847647,62.172731020594014,77.17275071969001,279237.9067127263,118921.81460801433,146411.6842751984,2138,2009,1453,0
-1077.0946212053639,63.15389783045692,69.15999329371068,278664.6463764123,119890.17242116055,146892.29155565685,2159,2012,1451,0
-1067.9090835118025,63.174662697080116,62.43835872895344,278603.9541958251,120785.59468129317,147598.2795094711,2132,2009,1450,0
-1059.392886345616,62.44722010572327,56.97908627986176,279007.7838556905,121606.64442080808,148503.1993547076,2130,2012,1449,0
-1051.5574960888962,61.131824055367986,52.730374007720954,279822.1785857782,122357.328777902,149582.23451346575,2132,2011,1452,0
-1044.4043689409318,59.34498591675369,49.607388617501734,280991.0311997765,123043.11500722675,150812.3976582851,2140,2027,1451,0
-1037.9266960250247,57.16730758058158,47.4901456737831,282458.9997004143,123668.88577559359,152172.76215771318,2170,2033,1451,0
-1032.110548070007,54.65412368485994,46.23271915121104,284173.99994440225,124238.62940952348,153644.49974575877,2190,2029,1450,0
-1026.9365589298259,51.84697995900292,45.67732554047893,286089.19837007404,124755.74211220822,155210.63918479206,2219,2035,1453,0
-1022.3813207268023,48.7820388744854,45.6675021345186,288164.1176300402,125223.17122098312,156855.6146149999,2248,2036,1452,0
-1018.4175842753298,45.49524215420997,46.059568475354844,290365.1211159561,125643.17318511335,158564.79048030463,2305,2045,1450,0
-1015.013202841557,42.0249983099365,46.730448690288675,292665.3546482339,126016.92367277324,160324.12363722353,2344,2046,1452,0
-1012.1287582519898,38.412762068001605,47.57962218808911,295043.89862335875,126344.31903031682,162120.06302354988,2384,2064,1449,0
-1009.7145324727651,34.702220312895,48.52686212955903,297484.24022732984,126624.09980526545,163939.69974534205,2415,2070,1450,0
-1007.7093636425265,30.937745125476972,49.50919722853684,299972.5969658675,126854.21366151115,165771.01094470866,2416,2061,1451,0
-1006.0439409335969,27.162867804668092,50.47960444630181,302496.37889319577,127032.41959106346,167603.1198094884,2431,2047,1452,0
-1004.6479485571192,23.419795360076634,51.408115576849276,305042.6856107688,127157.2270403542,169426.660018436,2422,2047,1451,0
-1003.457270976672,19.750348437116525,52.28395538899003,307597.00799496105,127228.92337349642,171234.12417715267,2396,2053,1450,0
-1002.4187835670557,16.196745209752546,53.115852615563476,310142.4753866042,127250.19766783844,173019.9491548287,2369,2037,1451,0
-1001.4927419386037,12.799946343993312,53.92729970531424,312659.80999098055,127226.08734310273,174780.34036251198,2332,2037,1451,0
-1000.6522857171652,9.595538778948965,54.746572552075484,315127.9595487052,127163.34356347016,176512.9880230265,2285,2046,1451,0
-999.8804535801717,6.609640045740429,55.596459569616066,317525.03118684125,127069.61287700816,178216.76087059153,2227,2065,1450,0
