AccX (g),AccY (g),AccZ (g),GyroX (deg/s),GyroY (deg/s),GyroZ (deg/s),Heel ADC0,MidFoot ADC1,Toe ADC2,LABEL
-197.25781569205716,-40.82152598513211,-625.7618030346507,90566.92976900883,73307.53579527032,145446.9244970556,2525,2017,1451,4
-274.020259506044,-61.70057700288377,-567.0936260282069,104864.49229618882,82565.67236738856,148512.03713326677,2381,2020,1454,4
-349.29571557689064,-81.29964633721802,-509.39192465398907,119099.43794296881,91620.9432047727,151631.12044436394,2541,2026,1454,4
-422.55403430550683,-99.3825648476428,-452.99895500025656,133151.63639121765,100373.05663245096,154789.99426813517,2539,2037,1454,4
-493.2247621147386,-115.71314110186951,-398.2608054186998,146915.28555674318,108734.2979951449,157973.53622163917,2582,2041,1455,4
-560.7219004832303,-130.08114043271672,-345.5246456691254,160299.0073256975,116632.01703162774,161166.32100223983,2621,2047,1452,4
-624.5022609612079,-142.33622720935148,-295.137241362256,173223.04018885313,124010.52521944932,164354.72386309213,2586,2066,1451,4
-684.1249371618559,-152.41434219372843,-247.4376846703644,185616.41828642145,130832.6592739968,167529.19389030937,2520,2047,1450,4
-739.2819891973173,-160.34657075889822,-202.73525809932417,197416.01698408494,137080.2688799596,170685.15137208326,2414,2058,1452,4
-789.807821549492,-166.25577598209037,-161.27320446503757,208567.8605518154,142753.32663197693,173822.34883387544,2254,2076,1451,4
-835.6797294349735,-170.3461980065196,-123.20075118498261,219029.10427598393,147867.3582257041,176943.30594175574,2182,2090,1452,4
-877.0020584299949,-172.87903302988443,-88.57431780724481,228769.62509808672,152448.68642780272,180051.26250044396,2062,2102,1455,4
-913.968160403813,-174.13262543630515,-57.38255989263184,237773.784801091,156528.11197587638,183148.0582770511,1962,2113,1457,4
-946.8159379831,-174.36636534429886,-29.575059697334922,246041.8266584553,160135.60255407038,186232.5948842351,1818,2119,1453,4
-975.7984276417612,-173.8040463151965,-5.080619649127565,253589.46838405204,163298.06491106268,189300.32178576963,1654,2157,1455,4
-1001.1704044368607,-172.6303239863518,16.186559515066556,260445.34225831873,166039.9580409614,192343.66122302282,1489,2176,1465,4
-1023.1812765478019,-170.99020092278047,34.32882530892661,266646.97868156584,168385.3349857861,195352.93562576664,1271,2211,1635,4
-1042.0722478621894,-168.99137770306976,49.4719801324099,272236.76595264126,170359.63152746402,198317.21147230436,1005,2260,1639,4
-1058.0780971109696,-166.71162107182627,61.772520061436964,277258.95727473265,171990.1098789217,201224.91117421503,797,2289,1638,4
-1071.4302819503234,-164.20882267049214,71.41721257710557,281757.67241245805,173305.10536479542,204064.43187071977,603,2275,1639,4
-1082.358251658119,-161.52954036104143,78.61380166883472,285775.6731745073,174332.85982703345,206824.63458526554,483,2322,1640,4
-1091.0889321139227,-158.71487089999852,83.58000371344475,289353.8940046653,175100.5990084982,209495.0508300626,360,2341,1643,4
-1097.8459538434024,-155.80440644201425,86.53479379984188,292531.4932087955,175634.05856094428,212066.0426188336,386,2348,1643,4
-1102.8488423503522,-152.83810499782527,87.69240535648164,295345.9753851333,175957.3430395729,214528.94907798257,261,2354,1640,4
-1106.3109983816864,-149.85650794932852,87.25938505428543,297833.20911405166,176092.94468299535,216876.1237896057,195,2397,1642,4
-1108.4361937342628,-146.90044735443797,85.43381400693316,300027.4904856961,176061.79383694893,219100.98252645248,115,2423,1643,4
-1109.4139121155004,-144.0105155242152,82.4055399572865,301961.6017218819,175883.29330539572,221198.08009387375,114,2473,1646,4
-1109.4140675666936,-141.2265827053464,78.35672201473209,303666.72422826104,175575.34546253065,223163.19334259428,47,2526,1649,4
-1108.5830953097577,-138.5877960084462,73.46203140048006,305172.2615832587,175154.3897480218,224993.47945073637,22,2515,1651,4
-1107.04309262576,-136.1323147361355,67.88783995420323,306505.62319544563,174635.46265118537,226687.60303608712,0,2527,1644,4
-1104.8932555724466,-133.8959035741401,61.79062682232926,307691.9846041559,174032.2998567075,228245.7136934808,3,2555,1656,4
-1102.212166171342,-131.9101922527586,55.31589321295855,308754.0586464126,173357.48691893902,229669.34900088178,0,2588,1657,4
-1099.0610290582983,-130.20182584354836,48.597752626834854,309711.8716803343,172622.63487651132,230961.3489462831,0,2598,1658,4
-1095.4882286528248,-128.79237852076022,41.75829526230792,310582.5491675215,171838.54600310817,232125.79901948574,0,2591,1663,4
-1091.5337875730477,-127.69854314366528,34.907059394827215,311380.1681841,171015.35433769078,233167.9535735769,0,2641,1663,4
-1087.2323365545642,-126.93291331550078,28.141587689776646,312115.78050784615,170162.65179832195,234094.0851735557,0,2679,1653,4
-1082.6149082795225,-126.50559523258377,21.54893782711703,312797.6416988116,169289.59836475927,234911.28037645362,0,2711,1648,4
-1077.710230262481,-126.42593692216667,15.20763104944273,313431.5191317268,168405.00838638484,235627.22466573855,0,2713,1653,4
-1072.5460053405866,-126.70335507803865,9.190367849117848,314021.0429339424,167517.3958494993,236249.9998787027,2,2731,1651,4
-1067.1505215495006,-127.34680223198524,3.567707882661617,314568.17867944686,166634.95657649077,236787.90655906568,0,2746,1665,4
-1061.5544915670807,-128.36312666140046,-1.5887343039665742,315073.6804834153,165765.50166690224,237249.3135121435,0,2747,1670,4
-1055.7930083695142,-129.75483201162282,-6.205587915177032,315537.3598181071,164916.29848932562,237642.521100164,0,2739,1687,4
-1049.9070078796424,-131.5181992975879,-10.20944061379325,315958.25045183557,164093.77683022543,237975.6184535944,0,2739,1705,4
-1043.9425441237868,-133.64329711125606,-13.529257857231862,316334.7358146573,163303.26430320193,238256.3372536887,0,2729,1710,4
-1037.9476406208084,-136.1157737312617,-16.09902699434325,316664.6131732321,162548.91549929004,238491.91651442106,2,2698,1730,4
-1031.9690378804764,-138.91827770156067,-17.860614280433,316945.13502268295,161833.7801014755,238688.97862318353,0,2660,1771,4
-1026.0503933966913,-142.03019783756145,-18.765978464405094,317173.0954478274,161159.92641252824,238853.4106984922,0,2645,1783,4
-1020.2320314156709,-145.42614141309164,-18.778860262152396,317344.94164406013,160528.62266862261,238990.25923007305,0,2609,1785,4
-1014.5524339652828,-149.07448045692695,-17.87611847418885,317456.85430932906,159940.56931729318,239103.64959010133,0,2591,1809,4
-1009.0509824026896,-152.93781921242953,-16.04803761459037,317504.85343143635,159396.1196583167,239196.69910116942,2,2593,1823,4
-1003.7706022056622,-156.97596514232973,-13.29870974046253,317484.99331860535,158895.4045877065,239271.38228981438,2,2557,1858,4
-998.7587761272922,-161.1490014417137,-9.647282377646613,317393.62099710887,158438.31543706125,239328.4055593534,2,2499,1881,4
-994.0658454204398,-165.4170153946397,-5.127795677479743,317227.7201195449,158024.30529557788,239367.19486569733,4,2395,1945,4
-989.7419278813859,-169.7357414601611,0.2129307746138385,316985.27529024053,157651.99362444275,239385.9700068817,1,2408,1928,4
-985.8353473217604,-174.05193012023122,6.315834294741042,316665.3898412473,157318.74297733785,239381.7906303157,0,2353,1971,4
-982.3932332709344,-178.3041554920139,13.10620898489481,316268.02720538963,157020.47476443852,239350.58532517822,0,2286,1987,4
-979.4629149807664,-182.4297557805587,20.48884545968707,315793.62772198324,156751.8497496596,239287.28906319448,0,2281,1990,4
-977.0931355968106,-186.37226951042652,28.346452683868975,315243.00835569424,156506.73589958175,239186.0790950935,0,2133,2099,4
-975.3351699397912,-190.08485522661232,36.544367869622654,314617.71490325715,156278.8077373217,239040.5194047784,0,1990,1967,4
-974.2448260032437,-193.52974655460784,44.94028047661748,313920.62780658284,156062.13999831615,238843.49379714875,0,1975,2011,4
-973.8851047718737,-196.67534580983315,53.393469128951054,313156.4669059646,155851.61693953673,238586.98595524902,6,1883,2020,4
-974.3275515639592,-199.49231668282616,61.76997973647269,312332.01990425924,155643.04185644208,238261.7931047772,2,1791,2044,4
-975.6518033126104,-201.94980772695249,69.94527379500937,311456.1853440363,155433.02240589078,237857.25422006764,0,1682,2158,4
-977.9441063650611,-204.01275045365273,77.80667790436463,310539.9481349571,155218.7889037515,237361.12474997027,0,1613,2172,4
-981.2945201530086,-205.64056023009994,85.25624996249185,309596.28106914286,154998.0493993748,236759.64745823664,0,1461,2287,4
-985.7929625956492,-206.7872744047691,92.2131621339146,308639.9521903027,154768.90461312392,236037.74165590384,0,1427,2318,4
-991.5253903318669,-207.40373877148969,98.61501888398274,307687.2078411439,154529.82604835648,235179.2718496763,5,1380,2332,4
-998.571018659811,-207.4416110100409,104.41875645795119,306755.29496530263,154279.6855178932,234167.39971732034,10,1365,2363,4
-1007.0008308175023,-206.85695551039035,109.60100319972912,305861.9733773427,154017.79239149817,232984.96120644556,6,1309,2352,4
-1016.8769715622641,-205.6116991906846,114.1569727791116,305025.12965093163,153743.8816513019,231614.81797025053,0,1314,2379,4
-1028.252179891734,-203.67346628453456,118.09780174051552,304262.3923394006,153458.01448259,230040.20151861032,0,1219,2415,4
-1041.1687255480056,-201.01517917086787,121.44698866533011,303590.7735348864,153160.42354353916,228245.0679895986,0,1169,2423,4
-1055.6570657077073,-197.61548982714305,124.2356250340206,303026.39794385957,152851.32935744623,226214.47906354786,12,1102,2466,4
-1071.7346011818775,-193.46031540734265,126.49579744580916,302584.24792312924,152530.71469103236,223935.03516058,12,1051,2501,4
-1089.4043383116214,-188.5448665333984,128.2537751160926,302277.96905690356,152198.1290805169,221395.3464973395,12,1021,2528,4
-1108.6536671737592,-182.87542140592043,129.52478380495526,302119.8392350911,151852.62049489838,218586.47922446902,0,1001,2542,4
-1129.4537241417522,-176.4704449486267,130.30928078537272,302120.86082862515,151492.79000983748,215502.33875408402,0,941,2557,4
-1151.758551715628,-169.36085071109667,130.5909154120797,302290.89060140227,151116.9395016617,212140.0225927132,5,928,2598,4
-1175.5034192990693,-161.58913379899897,130.3372196274094,302638.80617971136,150723.34452067903,208500.097292338,0,909,2602,4
-1200.6027968932806,-153.20759588853264,129.5034200665214,303172.7303779433,150310.66016185755,204586.70688184738,0,848,2640,4
-1226.9480359519735,-144.27653698005352,128.03806634485878,303900.2132719222,149878.33515368693,200407.60825862602,0,815,2649,4
-1254.404668867152,-134.86241626900937,125.88934658791038,304828.21238306555,149426.91891600157,195974.1202119639,2,775,2675,4
-1282.8101538901817,-125.03546069447125,123.01231474558556,305962.8365725837,148958.27500579302,191300.82698661642,0,802,2674,4
-1311.973794729948,-114.86655992474161,119.37579498859877,307308.9163351954,148475.71719662432,186405.2598657165,0,778,2682,4
-1341.6792177247899,-104.42356694392961,114.9673388141062,308869.4259109287,147984.05586313055,181307.8305878426,5,700,2700,4
-1371.6866893689084,-93.76867626145663,109.79638826870443,310644.7679829486,147489.56591076707,176031.93762650315,0,749,2671,4
-1401.73428946342,-82.95872633746583,103.89507195901213,312631.91764314333,146999.82152707534,170604.0584517017,0,757,2698,4
-1431.53975825137,-72.04793092403062,97.31584188654786,314823.4350154504,146523.33199461977,165053.7231898283,0,799,2665,4
-1460.8021630996802,-61.09162117978584,90.12709579300294,317206.5477800386,146069.09556765665,159413.53597420224,0,851,2658,4
-1489.2022669193873,-50.15069202230645,82.40692151083918,319762.59456477646,145646.18585350996,153719.2823993143,3,879,2638,4
-1516.4029345452473,-39.296874264028375,74.23433351892413,322466.89947181195,145263.35146549507,148009.87054553383,0,889,2607,4
-1542.0486949070182,-28.617774707660164,65.68095791440398,325288.92343074916,144928.73504273212,142327.22256530824,8,932,2636,4
-1565.7625766951833,-18.220182297235638,56.80637612577103,328192.7344764304,144649.9180739017,136716.19570045042,0,1103,2558,4
-1587.1418067754703,-8.231433782154639,47.65684477598475,331137.94565653504,144434.33102252995,131224.26933212273,0,1159,2523,4
-1605.7551434232846,1.200755729801065,38.26715148501563,334080.76781692874,144289.89072206046,125901.17328812508,4,1230,2467,4
-1621.1452777825336,9.911430262781815,28.667055729665954,336974.91705111903,144225.86240357798,120798.61710963497,0,1350,2390,4
-1632.8396621841405,17.72601581024552,18.8921191960599,339772.6046719768,144254.0176631996,115969.86392895403,0,1372,2318,4
-1640.367492552542,24.47062896485582,8.994446704709928,342425.4756795885,144389.74237882672,111469.31506965646,7,1422,2257,4
-1643.280333760609,29.984893432162615,-0.9520661745695205,344885.49438798823,144652.6074601634,107352.3034235899,4,1527,2151,4
-1641.1763794703222,34.13865242655787,-10.85314185556351,347106.30523048976,145066.31612702546,103674.85083293072,4,1615,2070,4
-1633.723366096996,36.84821845047186,-20.59997918829969,349045.1400272049,145658.1551944422,100493.46458873813,10,1635,2042,4
-1620.6790330321112,38.09044623609006,-30.0786574686887,350665.7064088274,146457.88210413692,97865.1150363149,7,1646,1955,4
-1601.913723038995,37.919973446323695,-39.18191682596227,351942.7529272084,147496.00846818206,95847.11089071134,5,1685,1926,4
-1577.4282644032774,36.488869165442665,-47.81565377029741,352867.1043705277,148802.00407501726,94496.6241067819,9,1757,1839,4
-1547.3500114583408,34.06147395997657,-55.890341228463946,353449.49965351744,150402.84442833066,93869.45495594753,3,1831,1748,4
-1511.9013273200806,31.018734484826243,-63.298933692177414,353722.8245311821,152321.6536716613,94017.7668193154,0,1810,1739,4
-1471.3601509922526,27.846540271814042,-69.89624611563914,353742.0365302494,154576.20208981424,94987.68824507552,0,1859,1663,4
-1426.0369838593695,25.098584409233275,-75.49271036165716,353580.2339604003,157177.0306154244,96817.79418987683,0,1925,1596,4
-1376.2711837220047,23.33371495027151,-79.86114867561253,353320.77639307384,160125.13475687028,99538.36863721542,0,1896,1583,4
-1322.4394317246454,23.051093079235518,-82.74883938513818,353048.4478640159,163410.11326758668,103171.05410281579,0,1915,1542,4
-1264.9722689773664,24.640743395514555,-83.89512300507019,352841.61382235587,167010.1281652318,107728.82157552218,0,1994,1470,4
-1204.3714180041025,28.347440134070677,-83.05693039913302,352764.51621450006,170893.92713742246,113216.16019327636,0,2004,1467,4
-1141.2184639357179,34.25335186187176,-80.03371817230052,352860.79395632556,175023.77781205738,119629.16456643434,0,2009,1453,4
-1076.1686957910829,42.29003704789498,-74.68287775458303,353150.5039654728,179358.7950449814,126955.51668907284,0,2009,1455,4
-1009.9327952816216,52.27380084904772,-66.92619497725964,353630.48425528273,183858.9437670313,135174.631760706,0,2008,1456,4
-943.2591000133391,63.94536035272216,-56.74997376104737,354276.7603293247,188488.47934058734,144257.76061374362,0,2010,1453,4
-876.9186603259288,77.00835116076394,-44.199041467025424,355048.71837807813,193217.30143329513,154168.10793950342,0,2010,1451,4
-811.6826629544912,91.17410317649502,-29.364505612185408,355894.96471526276,198020.4078963107,164861.51668200537,0,2009,1455,4
-748.293799133957,106.20195404976356,-12.369162774599728,356759.0509966552,202876.27654923097,176287.44013194932,0,2010,1453,4
-687.4384701764827,121.91381830740656,6.643112644862457,357583.64066329156,207764.86031881446,188390.121580472,0,2011,1452,4
-629.7241324138749,138.17857738507715,27.510129242312242,358313.7317571654,212665.7487695335,201110.58354065043,0,2009,1451,4
-575.6725074600824,154.8797846972157,50.04602501164136,358899.0475942196,217556.87508247668,214388.6337653273,0,2010,1451,4
-525.7301750529728,171.88353184166718,74.03209182843399,359295.3443870508,222414.10588361212,228163.99385896666,0,2010,1452,4
-480.2833695038179,189.0150856352533,99.20822325980734,359465.29914828454,227211.74707326264,242377.0037006155,0,2009,1452,4
-439.66748457076454,206.0482898305941,125.26701479558884,359379.48349995853,231923.40852865318,256968.73992919314,0,2010,1450,4
-404.1698241072647,222.71068852614385,151.8547630977148,359017.806607788,236522.91562216092,271880.4286287059,0,2010,1453,4
-374.0282573761897,238.70075102017378,178.5822681313858,358371.762772438,240985.4621535883,287053.02027097705,0,2010,1452,4
-349.4307379021274,253.70773619453234,205.04266127120246,357446.8151182491,245288.67680693843,302426.9496581516,0,2005,1457,4
-330.51728161028853,267.43080494335686,230.83903170270202,356263.969989531,249413.19881088744,317941.92251517257,0,2006,1456,4
-317.38159259270054,279.59943987996564,255.62517505758956,354860.3144019149,253342.86966553653,333537.19317734824,0,2006,1455,4
-310.07135583226807,289.9898126842655,279.14259650985235,353288.48340962414,257064.3614004498,349151.88238538685,0,2006,1455,4
-308.58863600679757,298.4313183833009,301.2336369659226,351614.59430395823,260565.89489195877,364725.14671213983,0,2010,1453,4
-312.8904926026847,304.8061351590563,321.8327710321809,349914.587404664,263835.34080091026,380196.92556140927,0,2010,1451,4
-322.88886032597975,309.045621515779,340.9493783581,348270.28967017937,266858.6068549266,395508.6803289183,0,2010,1453,4
-338.4496236971216,311.1240449882815,358.64968859316076,346765.8822291899,269619.2119904628,410603.47081544483,0,2009,1453,4
-359.3919623950858,311.0501932610522,375.0403765478757,345484.10781971033,272099.2209874474,425426.01399000525,0,2010,1453,4
-385.4891474632375,308.8595248101904,390.256606479916,344502.6611300978,274280.77670607436,439922.64521485986,0,2008,1454,4
-416.47212559908934,304.6082770890646,404.45497249463114,343891.35458084673,276147.5567640503,454040.9618148393,0,2010,1455,4
-452.03540421370735,298.36856140202224,417.8078529194287,343709.4846870535,277686.0692837751,467729.73192428757,0,2010,1453,4
-491.84142530765524,290.22452665720675,430.4969367963813,344003.4899563696,278886.48932869075,480938.8448706025,0,2009,1452,4
-535.5230781221195,280.26928244082035,442.7047081735979,344805.25638655666,279742.7947503955,493619.12687768624,0,2009,1453,4
-582.6875016983734,268.60122497958145,454.6030603343641,346130.65478454443,280252.5629207392,505722.64923790883,0,2009,1452,4
-632.9199703840441,255.32021499935234,466.3416929595962,347978.2641024055,280416.81968860346,517203.2480359666,0,2009,1454,4
-685.7878790832164,240.52357342561476,478.0388136370985,350328.65732751833,280240.08304288355,528016.992479062,0,2010,1454,4
-740.8483036647774,224.30117782078185,489.77317553131877,353144.23720153957,279730.6141626952,538123.1402053304,0,2009,1451,4
-797.656564293376,206.73164734492616,501.5777480436962,356369.43263320456,278900.7807201029,547485.1092885048,0,2008,1452,4
-855.7735562348353,187.88018644173508,513.4386188659589,359931.57845405967,277767.5037049039,556070.8640527973,0,2007,1454,4
-914.7747941129486,167.79525929023572,525.3011152019659,363742.89281778166,276352.81152794947,563853.1221727628,0,2005,1455,4
-974.2583576424395,146.50350575433654,537.0804957807745,367703.02102938574,274684.2563714839,570809.314968763,0,2005,1456,4
-1033.8481875430375,124.00330400260343,548.6760461369823,371701.93780668697,272794.5819231119,576920.953466474,0,2005,1455,4
-1093.1953208127757,100.25682752029175,559.98955769171,375623.69540134264,270720.33138164604,582172.6951467494,0,2005,1456,4
-1151.9765433471914,75.18468086337074,570.9420921941892,379350.2235794372,268499.94040366274,586551.3651877184,0,2004,1455,4
-1209.8887676614643,48.66810293769671,581.4796260473257,382764.65248280833,266171.5629862073,590044.9482547415,0,2005,1459,4
-1266.6423515843705,20.55803165506731,591.5651543175513,385754.9564136116,263770.30856572697,592641.6767581085,0,1997,1462,4
-1321.9554450551377,-9.312653871203644,601.1634919792202,388217.47676877567,261325.59018059698,594329.3515211806,0,2001,1459,4
-1375.5494410568424,-41.114753964097936,610.2295989527576,390059.60392638185,258859.59439727507,595094.960921907,0,2005,1459,3
-1427.1461672027538,-75.00638502048226,618.7070644778291,391202.0930961776,256386.85375748904,594924.584547807,0,2008,1454,3
-1476.4661416474635,-111.11825207128516,626.5329987768794,391580.87369023554,253914.57991886133,593803.482993349,0,2008,1457,3
-1523.2293453813702,-149.54372455773446,633.6391825449206,391148.01003817486,251443.31014709795,591716.3800651319,0,2008,1455,3
-1567.1605921850517,-190.33224255245045,639.9448020294675,389872.42354267876,248967.29109319698,588648.0386513148,0,2004,1458,3
-1607.995017325286,-233.4832495564677,645.345791972179,387740.7653420086,246474.57790483508,584584.0542526044,0,2005,1460,3
-1645.4804768279378,-278.9392362568462,649.7074717801958,384758.1703165004,243947.48361219733,579511.6967098938,0,1984,1475,3
-1679.3803543615734,-326.57699915445323,652.8637511403599,380948.6583278586,241363.90212141568,573420.8000982717,0,1981,1476,3
-1709.4773515478707,-376.1957082539535,654.6234561176393,376355.08406147326,238699.28684770974,566304.7814271486,0,1974,1483,3
-1735.5775488948605,-427.5008074302175,654.7840783841216,371038.19975374197,235928.86800966723,558161.7328098243,2,1972,1485,3
-1757.517862560947,-480.0864161397774,653.1513136323343,365074.56100610876,233029.90648883136,548995.4951524712,0,1965,1494,3
-1775.176321868698,-533.423606966294,649.5574020814472,358554.13299662946,229983.5329831433,538816.7973005755,0,1964,1488,3
-1788.482470373911,-586.8632686686644,643.8733975623518,351578.0293175822,226775.77676488392,527644.4622818824,0,1970,1488,3
-1797.4279690514359,-639.6538551437543,636.0160691705651,344255.8112576645,223397.92265177253,515506.4139382429,0,1973,1483,3
-1802.0746042034798,-690.961667013409,625.9485921879622,336702.87908534997,219846.46525988384,502440.50252508407,0,1972,1487,3
-1802.5564746597756,-739.8875727357503,613.6719803166562,329038.40754431346,216122.6493171984,488495.4976799602,0,1968,1484,3
-1799.078419845148,-785.485861628363,599.2084461200689,321383.0626154931,212231.6692636045,473731.876222159,0,1975,1485,3
-1791.9147700855287,-826.784642908333,582.5865175748797,313856.601202476,208182.2120383119,458221.75770936237,0,1974,1482,3
-1781.4086833198437,-862.8090219623197,563.8385237642772,306575.121971776,203987.14787126918,442048.45745954453,0,1970,1484,3
-1767.9667215116847,-892.613417737624,543.0104304837665,299646.84370326,199665.4948059546,425306.2231458365,0,1977,1483,3
-1752.043653893713,-915.3168943817726,520.1774178017622,293167.4166394645,195245.09618768404,408100.0162317453,0,1974,1481,3
-1734.1154604170783,-930.1400726276504,495.46667406028894,287216.0847146237,190765.37306530128,390545.0472155507,0,1974,1485,3
-1714.6460903618552,-936.4517711583873,469.0943090478895,281851.98885499756,186278.72388230573,372765.5858886257,0,1974,1479,3
-1694.0609705746729,-933.8146693437527,441.40142821640273,277110.6982837512,181848.4374693674,354893.32782504533,0,1975,1480,3
-1672.7294961982689,-922.0178454257377,412.85313169294216,273002.39812345913,177543.24890561393,337066.3273244232,0,1979,1483,3
-1650.9531481212364,-901.1040851857579,383.9913554217247,269512.3961911077,173430.01132840765,319427.8276986667,0,1977,1479,3
-1628.9628943765445,-871.3956714905895,355.37417862562796,266603.358467936,169565.6980860357,302123.6873477082,0,1978,1479,3
-1606.9223304710526,-833.5122837836896,327.5241394570871,264218.13987087354,165991.82898153178,285299.4871226949,0,1976,1479,3
-1584.9283291460804,-788.3789284651251,300.88188379041657,262283.13908727147,162733.9382829094,269097.90911129053,0,1988,1471,3
-1563.0076115212248,-737.2245028826403,275.7728316496414,260712.7994170166,159805.00337414342,253655.05004367442,16,2013,1451,3
-1541.1088711667505,-681.5635256043379,252.4012823789234,259414.46238767754,157210.11690389115,239096.47643889592,269,2012,1455,3
-1519.094435664421,-623.1523912007128,230.86670856553587,258292.89381034052,154950.85499759365,225534.13252399344,1089,2011,1451,3
-1496.7430308506339,-563.9265770548479,211.1820853613017,257255.07232939705,153028.96232961825,213063.19561313873,2161,2009,1451,3
-1473.7762744618965,-505.9017654182634,193.26819347367575,256214.90633647604,151448.10280777374,201759.43634452316,2719,2012,1454,3
-1449.91423175779,-450.98219617058777,176.91475007512906,255098.77772403866,150211.79736714298,191677.67347956062,2920,2012,1452,3
-1424.942776914875,-400.6863213734262,161.74287465957036,253854.8251060543,149318.1634862913,182849.7747596828,2881,2007,1456,3
-1398.7642041023316,-355.92668411068234,147.23617034268116,252465.26132035113,148756.10215211977,175282.24898832227,2795,2009,1459,3
-1371.4314365940813,-316.9900306436586,132.89216034187046,250956.2006179802,148507.72991798472,168955.65661537464,2775,2012,1455,3
-1343.1886365070131,-283.71803820333787,118.43751862572815,249398.12221614798,148555.6227634633,163827.09206486618,2563,2010,1455,3
-1314.503312710666,-255.73776877991523,103.94869947775409,247893.8643481871,148887.54379958464,159834.90347970818,2529,2012,1451,3
-1286.027057571975,-232.60466424497554,89.78724514775338,246557.0400350998,149493.09162530027,156904.26368342113,2312,2018,1454,3
-1258.4669444450064,-213.8466610001248,76.41734164978594,245488.44011331908,150354.50593309975,154952.98084812445,2400,2010,1451,3
-1232.4420412168301,-198.95762890358833,64.24567714964437,244761.3413972234,151439.3424730599,153896.26564466552,2317,2018,1451,3
-1208.3898995649527,-187.37802887333868,53.55399184648286,244420.9108118864,152700.169492944,153648.9331837604,2426,2019,1452,0
-1186.5253740038054,-178.49257947739008,44.49389026451747,244491.73891824955,154080.34100766317,154125.79049935337,2440,2026,1451,0
-1166.848106976861,-171.6608898868587,37.09950376401725,244984.7291159036,155521.56332021693,155242.14844012793,2555,2057,1455,0
-1149.190145570805,-166.2676932216142,31.299950025220465,245899.6368081518,156969.54109142144,156915.22914923518,2619,2069,1453,0
-1133.2867230150455,-161.77289165395823,26.931554085138632,247224.68060716867,158377.40276686387,159066.41331711653,2617,2092,1455,0
-1118.8606613826478,-157.75645249421314,23.758412726034088,248935.58391426015,159708.57039431488,161624.01366779715,2610,2098,1453,0
-1105.6934140405654,-153.9466191150727,21.503369954150685,250995.3351854723,160939.23373031276,164525.3471858164,2589,2096,1454,0
-1093.653762378975,-150.2126474542667,19.888205754708043,253355.90346627985,162059.29337858057,167716.83663085487,2511,2082,1453,0
-1082.6868210981868,-146.5244966499102,18.676024647324386,255962.5075907399,163071.0772370024,171152.2719087545,2456,2109,1455,0
-1072.7867557072411,-142.9081283545091,17.694720257213284,258759.0118208391,163985.82954173686,174790.38486484514,2354,2126,1460,0
-1063.9722503829573,-139.41902385134594,16.827333344110393,261693.0318131808,164817.99677766717,178592.6983356216,2261,2133,1459,0
-1056.264582805332,-136.1269681970936,15.979984155510179,264720.2622109528,165578.64356812436,182522.00267813864,2174,2131,1464,0
-1049.6658008748138,-133.10012281633715,15.051357618334505,267806.6459905805,166271.60306353742,186541.60528220655,2059,2136,1454,0
-1044.1444424757249,-130.38897573819722,13.920940757729474,270927.8531539714,166893.98643825043,190615.2123554047,1905,2204,1535,0
-1039.6331904380284,-128.01294116947653,12.460761050265663,274067.1868013213,167439.32213477182,194707.2500289376,1727,2231,1630,0
-1036.0373183728266,-125.95274505994482,10.563327369810937,277212.66448441136,167901.4614938992,198783.653582358,1515,2193,1464,0
-1033.2483583577632,-124.15192677501196,8.166479952181158,280354.08115574345,168277.44124240664,202812.72586816837,1296,2263,1633,0
-1031.1556462383853,-122.52952250032904,5.260189260562335,283481.03629672463,168567.962807878,206765.662420122,983,2271,1634,0
-1029.6535576244887,-121.00201333062091,1.8765747520098393,286582.021762169,168776.0651165349,210616.8893812689,915,2305,1632,0
-1028.6449796184506,-119.5035218312638,-1.9264378541167335,289644.2161204217,168905.5537491505,214344.19413275959,732,2316,1633,0
-1028.041656347869,-117.99431258660161,-6.07878945224479,292653.90086445626,168960.19009297513,217928.57138004023,694,2368,1637,0
-1027.762660706091,-116.45900222320124,-10.506516938878084,295597.4095992254,168943.64724491368,221354.01344173282,441,2414,1640,0
-1027.732363494177,-114.90095371674097,-15.134861148050174,298462.05801459635,168859.7881535905,224607.3017816564,308,2462,1640,0
-1027.8793901283143,-113.3367813810528,-19.887995816182702,301236.69267880166,168712.91543837517,227677.770208459,259,2478,1644,0
-1028.137009620283,-111.79184997473007,-24.68781673487789,303912.08973949373,168507.8359878472,230557.16068970753,168,2490,1645,0
-1028.4439670239312,-110.2969656593241,-29.452851679002407,306481.2143395724,168249.75156491177,233239.530959797,103,2543,1648,0
-1028.7446891741797,-108.88535677581541,-34.0985797579185,308939.13420063857,167944.0414312798,235721.11984677092,47,2584,1649,0
-1028.9886626190923,-107.58842538987322,-38.54028875960353,311282.6708879006,167595.9921407794,238000.21941164072,77,2667,1647,0
-1029.1296650844286,-106.43126699714684,-42.69743068263888,313509.93509008014,167210.55769194465,240077.02734233724,0,2679,1651,0
-1029.1255842915275,-105.42986653785532,-46.49855601801783,315619.80119848636,166792.18008563804,241953.4579483083,6,2689,1652,0
-1028.9388072738875,-104.59007274463164,-49.886669469573526,317611.3776188637,166344.64089131172,243632.989259992,0,2694,1651,0
-1028.5366804505818,-103.90803959972656,-52.822879862588096,319483.52561915986,165871.02252787424,245120.5228801392,0,2734,1650,0
-1027.8918342657455,-103.37218715103486,-55.286307788446884,321234.45628747786,165373.91224680623,246422.21837233627,0,2761,1662,0
-1026.9827274256413,-102.96634761619016,-57.27122321718402,322861.41829739546,164855.8141850267,247545.35951015074,1,2767,1664,0
-1025.7948181590043,-102.6738713326854,-58.78263610861419,324360.55064836284,164319.53553373247,248498.25039910196,0,2789,1667,0
-1024.3218047192609,-102.4822270189972,-59.830716568363,325726.9701053361,163768.3580991966,249290.09000086086,0,2845,1663,0
-1022.565960831666,-102.38614486251493,-60.42571749607826,326954.9906306706,163206.02487795465,249930.8246732949,0,2874,1659,0
-1020.5376477235493,-102.38757780948937,-60.574710054667165,328038.4137266869,162636.6154991919,250430.9758346331,0,2908,1665,0
-1018.2546850594115,-102.4932854328798,-60.27947413229435,328970.94663419935,162064.34277260216,250801.43176388313,0,2950,1678,0
-1015.7422212232439,-102.71285156886843,-59.53570315703028,329746.6116995629,161493.37273315203,251053.23717092752,0,2968,1666,0
-1013.0333133431474,-103.05904888215835,-58.335611399731775,330360.0376077366,160927.69351214258,251197.3955364728,0,2943,1679,0
-1010.1691941683258,-103.54891500750801,-56.67445312890895,330806.7752218219,160370.91576635238,251244.65209033864,0,2951,1679,1
-1007.197906725611,-104.20253864269215,-54.55704547138737,331083.6881435949,159826.0586804914,251205.26612560815,0,2950,1694,1
-1004.171365006685,-105.03929771320102,-51.999087604915005,331189.38355012273,159295.55691914086,251088.79102814716,0,2971,1697,1
-1001.1428923669703,-106.07435705892652,-49.02243170451394,331124.6651897985,158781.54223350398,250903.85561711708,0,2989,1705,1
-998.1670876261095,-107.31775127176614,-45.64893482065794,330892.8023675671,158286.17592331677,250657.99113408817,0,3012,1698,1
-995.3006553369839,-108.7752462911429,-41.89769373734963,330499.4192893645,157811.78119715644,250357.51401932508,0,2948,1731,1
-992.6020330708025,-110.44953167846661,-37.78548438853008,329952.1774439448,157360.7651142997,250007.39540221408,0,2998,1718,1
-990.1299374859976,-112.34144768537702,-33.3278580925932,329260.5889002669,156935.4943372178,249611.14101463213,0,3015,1735,1
-987.9415799002246,-114.45089833630753,-28.54026168724909,328436.01655881514,156538.16774158258,249170.78171069914,0,2982,1739,1
-986.0905523669612,-116.77588392384867,-23.438267771699138,327491.6800756969,156170.63852126664,248686.9743249529,0,2947,1771,1
-984.6246935257274,-119.30649361882236,-18.03517136305813,326442.4496889229,155834.2230888129,248159.10766687195,0,2945,1758,1
-983.5854625241603,-122.01416717658367,-12.339680914823722,325304.1854630171,155529.51327637956,247585.31836896215,0,2907,1772,1
-983.0097613362076,-124.84400708171307,-6.358078770986544,324092.70693991,155256.18640777015,246962.4743636939,0,2869,1788,1
-982.9327773382519,-127.71870260941755,-0.09959054511074994,322822.79146380606,155012.91925690178,246286.32811126916,15,2883,1796,1
-983.3899770882358,-130.55331406151996,6.418666476988896,321507.4443471112,154797.50436830436,245551.90395663105,2,2906,1809,1
-984.4179758095338,-133.27051676990112,13.168965713686656,320157.63928380044,154607.10787044966,244753.90376909784,0,2812,1840,1
-986.0558546007115,-135.80779366605978,20.113171157154042,318782.6607687317,154438.5394498455,243886.8437101587,0,2824,1848,1
-988.3485506478538,-138.11675285786097,27.204588852376798,317390.81138793693,154288.46969340288,242944.84945838034,2,2768,1882,1
-991.3506382824635,-140.15857311757776,34.38917532616344,315990.1002277576,154153.5600495309,241921.3175214224,0,2716,1914,1
-995.1267691621931,-141.89866723243293,41.605925415126414,314588.75636821374,154030.4859457972,240808.62973318377,0,2630,1957,1
-999.7482243422485,-143.3022053652874,48.78748185556122,313195.6165487471,153915.9130818932,239597.9352463878,0,2647,1989,1
-1005.28869740597,-144.33156391665128,55.86123399739536,311820.41288727266,153806.52041389665,238279.05857212716,2,2571,1985,1
-1011.8215295308221,-144.9460155315246,62.75212481675846,310473.90251529246,153699.12838844964,236840.58897432048,6,2502,2005,1
-1019.417738406526,-145.10279816331055,69.38814537114833,309167.8156777122,153590.92677886062,235270.07279703495,0,2427,2070,1
-1028.1439151648854,-144.7584606512829,75.70608229482156,307914.7237643618,153479.70040647016,233554.2422835396,5,2415,2127,1
-1038.060657091193,-143.87005204342515,81.65525728801565,306727.8644014107,153363.93408363513,231679.25802716892,8,2308,2139,1
-1049.2222583274154,-142.3963111056308,87.19994110881491,305620.84925259574,153242.77896780218,229630.94375928323,2,2261,2189,1
-1061.6770565756258,-140.29866427914465,92.32070702458765,304607.3318094041,153115.9385150911,227395.0468430755,6,2266,2200,1
-1075.4677012161978,-137.54150532214518,97.01375395225651,303700.69482266036,152983.48686511233,224957.55578278287,7,2199,2259,1
-1090.63111826008,-134.0919255164916,101.28801609770802,302913.6765029393,152845.5988958339,222305.05152791576,1,2119,2263,1
-1107.1977881567777,-129.91982582471164,105.16072958720497,302258.02031047014,152702.25149521756,219425.0997933044,0,2055,2124,1
-1125.190770409528,-124.99918111500486,108.65148142668616,301744.25550040003,152552.94079817948,216306.69708039437,7,1980,2167,1
-1144.6254056900507,-119.31018163098976,111.77491177033085,301381.5428903089,152396.4022910868,212940.73270601442,11,1933,2239,1
-1165.5088203656117,-112.84136009675291,114.53455613760953,301177.58619491133,152230.4241124898,209320.44126014507,3,1855,2283,1
-1187.8377575934533,-105.5914808870999,116.91995369623469,301138.67609426787,152051.8948770157,205441.7647018592,8,1845,2299,1
-1211.5947872379481,-97.57134077815576,118.90617775831403,301269.8293016692,151857.09351945456,201303.54726792997,0,1705,2359,1
-1236.7437792812498,-88.80487891791316,120.45516157370334,301574.9371559228,151642.09271330613,196907.69241406678,0,1659,2379,1
-1263.2256356120345,-79.32899115299098,121.51953414908907,302056.89733201725,151403.1754224033,192259.40521022666,0,1647,2406,1
-1290.954770334211,-69.19233812618249,122.04845172789763,302717.7088526199,151137.26724307146,187367.45955326522,2,1596,2450,1
-1319.8166327662877,-58.45265742365476,121.99534074158554,303558.4264858997,150842.43796605305,182244.30753387377,0,1484,2482,1
-1349.6668807738506,-47.17181994322855,121.32819150066136,304578.88158617157,150518.47391351574,176905.9262114778,0,1459,2485,1
-1380.3315998532485,-35.41072046496413,120.03927885146523,305777.1841484253,150167.3162014962,171371.67017385064,0,1349,2556,1
-1411.6080767529234,-23.2267073572816,118.14979067876943,307148.97051559144,149793.030121563,165664.28088504687,0,1335,2569,1
-1443.2663656124241,-10.673819785376597,115.7088165305237,308686.36678104213,149401.20683193297,159809.85730230523,0,1317,2547,1
-1475.0497620890933,2.1945413467131587,112.7883118079374,310376.92714786617,148998.10183721164,153837.91407685005,0,1267,2568,1
-1506.6729896490517,15.320413482473558,109.47373302292581,312202.84868158953,148589.7890949654,147781.6491497295,11,1257,2547,1
-1537.8197195260589,28.634064243525405,105.85069117249093,314140.4993709071,148181.37307573247,141678.18735542885,17,1167,2557,1
-1568.1400346022451,42.046488389515126,101.99259984848885,316160.23499246093,147776.44383186943,135568.8203269799,17,1146,2547,1
-1597.2479320141174,55.44268325061375,97.95279517477266,318226.68863631744,147377.01790478683,129499.2218729151,3,1159,2533,1
-1624.7197429458483,68.67542789515956,93.7597204028265,320299.6812242255,146983.93338306606,123519.3589040771,21,1176,2495,1
-1650.0932445503763,81.56080958385105,89.41508393282406,322335.4322802091,146597.50842927795,117683.24345699076,16,1239,2487,1
-1672.868625833093,93.87918427946678,84.8978497647454,324287.9282865569,146218.4815134333,112048.57019984168,3,1325,2461,1
-1692.5135617705134,105.383136664608,80.17542509925553,326110.6785473555,145849.3533359755,106675.91090416456,0,1510,2367,1
-1708.4712973146522,115.80913901667343,75.21854090182484,327758.4303797915,145495.83518760654,101627.79141424595,3,1688,2280,1
-1720.1726041337497,124.89245196677304,70.01600202632405,329188.36866401555,145168.04229200046,96968.04680826314,6,1681,2252,1
-1727.0542984421163,132.38782543439018,64.58846818264499,330361.06140054873,144881.3666145258,92761.24556989677,10,1899,2103,1
-1728.5803834865992,138.0903645898621,58.99635350102746,331241.3290526751,144656.7876844759,89072.28678027687,15,1871,2088,1
-1724.2658011844132,141.85068053162118,53.33317778532035,331799.45435552864,144520.13920714188,85966.34423405712,12,1797,2049,1
-1713.7087822389626,143.5879557621656,47.70525418128473,332013.4636526544,144500.28743723303,83508.8861315888,6,1867,1995,1
-1696.6241840352106,143.30474369152307,42.21185925426857,331872.2216275556,144627.01182832159,81765.59095709586,9,1889,1938,1
-1672.8619008802987,141.10541890246284,36.938797039419775,331378.8635733153,144929.2330707675,80801.72659733515,13,1923,1796,1
-1642.4052917146048,137.21652190740977,31.96609956966932,330554.40909948776,145433.51954237142,80680.38083191555,4,1956,1732,1
-1605.3560032332798,131.9949171097115,27.380741257615338,329440.16691527114,146162.90830721066,81459.96590013598,0,1964,1655,2
-1561.9132528124323,125.9037807584839,23.28413405406626,328096.8192503804,147135.9057759178,83191.81955211888,3,1938,1625,2
-1512.3540579540938,119.45540791224415,19.792924726072552,326599.9499259999,148365.09155870156,85918.14917441276,0,1945,1577,2
-1457.023983836006,113.14730589201189,17.037021724641836,325034.3489592099,149855.52926796314,89670.6193499528,0,1922,1557,2
-1396.3441875192912,107.40876783373587,15.155094615589517,323488.6651148145,151603.9964160616,94469.74759725835,0,1934,1524,2
-1330.8290613395275,102.55398331806425,14.288134548979777,322049.92749960226,153599.41991726175,100324.63981349245,0,1966,1494,2
-1261.1023481237362,98.75138532207643,14.574152626799862,320798.4126084176,155823.9963186024,107232.53719323949,0,1994,1463,2
-1187.8969839164324,96.0291568391152,16.141764231136477,319803.3457238675,158254.76587027687,115178.25659301081,0,2006,1458,2
-1112.034023079149,94.31486577894913,19.09837325061935,319118.7566704877,160865.75514213578,124133.977164576,0,2009,1454,2
-1034.3957258682747,93.48512057819507,23.51649096515701,318780.3372047754,163630.07556918182,134059.40416372998,0,2012,1453,2
-955.9016853757591,93.4106243086979,29.424312857046996,318804.9273800233,166521.44110254777,144902.56370334944,0,2011,1451,2
-877.480524674908,93.9988845817303,36.801288519314234,319192.4532091649,169515.29259113938,156601.7036808334,0,2008,1453,2
-800.040464334194,95.22805593894721,45.577594718336044,319928.8456650342,172589.29901359795,169087.51670562895,0,2010,1451,2
-724.4439328823356,97.15782061616873,55.64078259037204,320989.2859176126,175722.94981944264,182285.33748035503,0,2008,1452,2
-651.479923758288,99.91305400629852,66.85400427754942,322341.97041849827,178896.85747297225,196118.10564694693,0,2011,1453,2
-581.8429266845295,103.64908607202356,79.07736692447304,323951.35960877006,182092.47560451666,210509.2094186482,0,2010,1451,2
-516.1355766047149,108.51063787445341,92.1750910133263,325779.5679893399,185292.35264575732,225384.17682950798,0,2010,1451,2
-454.88954296537094,114.59168708024153,106.0062665427242,327786.3601028222,188480.67936995497,240671.78936533708,0,2009,1451,2
-398.5856250370827,121.90720001282776,120.41320016396799,329929.09076622897,191643.74515323772,256304.39558013852,0,2008,1452,2
-347.6612634428575,130.38568269169483,135.2187907552423,332163.73512948054,194770.32598723087,272217.10183433874,0,2008,1453,2
-302.5056987874541,139.87664461598368,150.2328871681533,334447.263108528,197852.28638567388,288346.62758589373,0,2007,1453,2
-263.4514529427476,150.16312330609122,165.26247109602275,336740.24775525526,200885.0791326042,304630.1065762168,0,2008,1455,2
-230.76787403825102,160.97919339760642,180.1273111892795,339009.07856622036,203867.60993607246,321004.25151799637,0,2009,1452,2
-204.65726366738699,172.03395072264018,194.6828015083753,341228.1555023442,206801.40753185723,337405.6558686782,0,2009,1451,2
-185.25528277752554,183.0332302603,208.83888217124036,343381.5906257273,209689.284641019,353771.4616189848,0,2009,1452,2
-172.63493688595435,193.69251796189968,222.56258071536143,345463.52889978985,212533.51817931267,370039.6641422832,0,2009,1455,2
-166.81056348029162,203.74486654474936,235.86440739108167,347477.18127055536,215333.67107317373,386149.6749886978,0,2008,1456,2
-167.7403463139597,212.94593700602744,248.77873376696857,349433.2320540982,218084.80348800772,402042.8805869987,0,2008,1454,2
-175.32717922040567,221.075151505801,261.34780680017553,351347.93779552967,220777.0218885674,417662.8902557022,0,2009,1452,2
-189.41843719319837,227.93426824662978,273.611802450396,353240.95321344095,223396.492825663,432956.22495492734,0,2009,1451,2
-209.80648285311204,233.345634667851,285.60475020485063,355133.30735526676,225927.0671492726,447873.044779219,0,2009,1451,2
-236.2331539117393,237.15207600034105,297.35732439885754,357045.82424119854,228351.8757665707,462367.2802123195,0,2010,1450,2
-268.3997482386392,239.2187249941838,308.903844042255,358997.71097381867,230654.88596213856,476396.65787698113,0,2010,1453,2
-305.9777680775778,239.43472447077392,320.2867935277588,361005.2728850443,232822.012675532,489922.4359389756,0,2008,1452,2
-348.61659051429933,237.71314459513252,331.5544920993341,363080.9051766524,234841.3220767453,502908.5967527735,0,2006,1453,2
-395.94971344906054,233.98959379369853,342.7528001847298,365232.2497005696,236702.60148909545,515321.1391066734,0,2009,1451,2
-447.59859390454625,228.22033194213864,353.91563242607265,367461.47942668636,238396.78576332395,527127.5221703295,0,2008,1454,2
-503.1728180238968,220.3787485029125,365.05961016695994,369764.80553421186,239915.60195036835,538296.1775735097,0,2008,1453,2
-562.2695085615403,210.44939872850233,376.1841854425586,372132.1640751001,241251.63083292104,548796.473573669,0,2007,1453,2
-624.4725622767331,198.42202738518012,387.2745955848239,374546.932433223,242398.6582678409,558598.7646370229,0,2008,1452,2
-689.3524060392454,184.28709671982185,398.30547948781197,376985.6189411777,243352.1623429747,567674.1909414543,0,2008,1453,2
-756.4690516657205,168.03167003047824,409.2442613532984,379417.58172704244,244109.92049142334,575994.666906492,0,2008,1453,2
-825.3758770841837,149.6360817207755,420.05252646473673,381804.84348857205,244672.53573234836,583532.9745149309,0,2008,1452,2
-895.6220455230356,129.07186552418446,430.68471306338245,384102.2723221134,245043.6662518031,590262.75162737,0,2008,1453,2
-966.7561883463368,106.29983417963089,441.0863108383847,386258.40614261327,245230.0167530198,596158.6734880141,0,2007,1451,2
-1038.3288505571418,81.26925397830666,451.1944408828801,388216.6789121,245241.15728863137,601196.6407392725,0,2009,1454,2
-1109.891064363258,53.91983624888191,460.94325184621084,389916.993247299,245089.00531397565,605353.6792579665,0,2008,1453,2
-1180.9929358598572,24.186074489127922,470.27311434443675,391297.9085928521,244786.84787819185,608607.7856424047,0,2008,1453,2
-1251.1833585894306,-7.997184946960337,479.1374283915762,392298.94009587733,244348.13487398624,610937.7647352226,0,2008,1454,2
-1320.0107495654538,-42.68908987406379,487.50261128402315,392862.6219260294,243785.1336180071,612322.9312702905,0,2004,1456,2
-1387.0267383784926,-79.93835901296609,495.3430698303222,392936.7769753056,243107.3424362416,612742.7856412426,0,2009,1451,3
-1451.7895053227226,-119.77951397482023,502.6351139359521,392476.7620761443,242320.10405293657,612176.7821569473,0,2011,1455,3
-1513.864655307345,-162.22769480344567,509.35135722596794,391447.28965823026,241423.87327289218,610604.2387261498,0,2008,1453,3
-1572.8269752301942,-207.27126238087553,515.4549945599684,389824.09759070136,240413.96759026582,608004.4546866862,0,2010,1451,3
-1628.2619494201317,-254.86209153378334,520.8943913146112,387595.3980136215,239280.61488985797,604357.0805556186,0,2010,1452,3
-1679.766146786848,-304.90227318474757,525.5990103378185,384762.79839492805,238009.40135770835,599642.790722989,0,2006,1456,3
-1726.9509460991585,-357.2270364701252,529.4764470980482,381341.80828748574,236582.15464609867,593844.311383119,0,2006,1454,3
-1769.449872830358,-411.587648705212,532.4107223289116,377362.0564793582,234978.07202553382,586947.7489087192,0,2004,1458,3
-1806.9295095403513,-467.63937736489163,534.2638067027153,372866.90614419867,233175.11795209144,578944.1083926397,0,1998,1462,3
-1839.1066141142876,-524.9358672232077,534.8818346621,367912.2337128116,231151.89260606078,569830.933280377,0,1989,1474,3
-1865.7656785429683,-582.9267271864135,534.1045770852145,362564.92951836257,228889.61673825223,559613.9349880385,0,1979,1477,3
-1886.7701996315182,-640.9564413537895,531.7779102052089,356901.3722457254,226373.73866246716,548308.2684268496,0,1976,1486,3
-1902.0691658153326,-698.2656460449821,527.7701437871277,351005.4415723793,223595.14266526673,535939.2684127198,0,1978,1482,3
-1911.700689635611,-753.9939090136818,521.9866840627641,344966.3838699488,220550.9222206858,522543.0974681123,0,1963,1490,3
-1915.7947643572504,-807.1870381041141,514.3757083879037,338876.4921028093,217244.52683359562,508167.5152712238,0,1951,1501,3
-1914.576970341626,-856.8144712109358,504.9258083927933,332827.82079977024,213685.40214577774,492872.3938380418,0,1939,1514,3
-1908.3720051676423,-901.7921975454742,493.6617443997349,326908.55746874196,209888.67455276882,476730.1478642931,0,1926,1526,3
-1897.6023835445123,-941.0108662278634,480.64163407701426,321199.3877515799,205875.36256363892,459825.94276035216,0,1924,1526,3
-1882.7723175554784,-973.3766744481106,465.95530257898827,315769.0666601227,201673.15569889706,442256.93341270834,0,1931,1518,3
-1864.434251953414,-997.8577447289294,449.7244111073138,310670.3679916913,197317.58862385215,424131.2609608671,0,1946,1508,3
-1843.14836547464,-1013.5332352275877,432.11007443887036,305938.07836298965,192853.30830496235,405567.73831462226,0,1958,1495,3
-1819.44878011656,-1019.6558142268908,413.3347413352462,301588.5447819846,188334.9620872539,386695.8620454781,0,1963,1492,3
-1793.8271790138872,-1015.7143287592148,393.7046592371872,297619.79444969026,183826.88482190645,367656.12869555264,0,1956,1495,3
-1766.7278967486634,-1001.4773286999979,373.5985345538908,294011.95756476175,179399.7068899012,348599.82371274865,0,1960,1495,3
-1738.540655235248,-977.0236156415655,353.417451156769,290728.3184333448,175123.0708125561,329686.80182876193,0,1970,1485,3
-1709.5923100073169,-942.7649500570615,333.5315549857952,287717.41466574726,171057.8325751973,311082.3444251547,0,1973,1479,3
-1680.1433076623644,-899.4527846896295,314.241684956756,284916.3933922261,167251.61134433435,292953.7532089212,0,1982,1475,3
-1650.3849962020322,-848.1670744012245,295.7479228889433,282255.6290703297,163737.8078493326,275465.2432594819,0,1982,1475,3
-1620.4344260856778,-790.2944327170175,278.1289774350276,279663.69907086034,160536.87926731617,258772.2811530639,0,1985,1472,3
-1590.328716774039,-727.4909480821449,261.34514631419216,277072.28158040985,157659.58360442004,243016.81560630377,159,1979,1478,3
-1560.0218425815726,-661.6189915817097,245.2661114733677,274421.50298317795,155111.72190551864,228322.47946251716,715,1995,1465,3
-1529.3884622651226,-594.6724746058622,229.7113500236794,271664.72712568357,152898.66170781883,214790.7928209967,1707,2004,1460,3
-1498.2452573431033,-528.6876888826531,214.48307668953032,268771.2902592265,151027.7198857924,202499.7160111388,2606,2006,1460,3
-1466.3976621012596,-465.60585626671394,199.37070794461917,265727.4335878648,149507.63203461628,191503.28092138242,2825,2012,1451,3
-1433.6988999119067,-407.1002069559698,184.12620696551508,262537.1442645886,148345.48522250395,181831.36279753712,2871,2013,1451,3
-1400.1052963605475,-354.40962685253726,168.46434846346193,259226.35276157391,147542.64705783434,173489.17399837213,2726,2010,1454,3
-1365.7320715584995,-308.2188161151391,152.1605161081144,255852.64722595084,147092.58381901894,166455.98350575034,2635,2010,1453,3
-1330.9050097616243,-268.64901935634913,135.21645688648465,252514.26617229937,146982.56999219116,160684.50416899016,2503,2011,1452,3
-1296.1740524542638,-235.39001295782066,117.95725725793787,249345.03513871552,147196.9281625638,156103.50912612997,2312,2008,1455,3
-1262.2467876034978,-207.90199481093848,100.96575173070366,246490.1556255767,147716.50951223966,152624.4990214091,2166,2011,1451,3
-1229.849515867141,-185.56622533641257,84.90130435166395,244076.32593158868,148512.98928865642,150150.37662636305,2143,2013,1453,3
-1199.5937519614754,-167.74051494768443,70.3383915359275,242194.13092881627,149543.56810934385,148582.65330716502,2155,2013,1451,3
-1171.9026672093437,-153.76529536045712,57.69964420781533,240896.56247037722,150752.2594361177,147825.45217150936,2138,2018,1452,3
-1146.9842439137897,-142.96201963866864,47.24889473655043,240205.90010589545,152077.31186967395,147787.09324967166,2285,2030,1455,0
-1124.8340919762832,-134.64024454673304,39.09668061367537,240120.7585056601,153459.1313199252,148380.53538065,2445,2032,1453,0
-1105.2715108891034,-128.12809187776952,33.20524233365045,240620.2396199613,154844.9538573138,149523.84237517483,2487,2024,1456,0
-1088.0067459105087,-122.8280406837182,29.395039534960805,241666.38285724324,156190.9784968803,151141.55773141512,2523,2047,1452,0
-1072.7151986008905,-118.27358233809628,27.35879033922611,243206.09969457137,157463.48677498306,153166.61522517697,2524,2058,1451,0
-1059.097426835723,-114.16155819866556,26.697301629497776,245173.30510175857,158639.9679099787,155541.8243883769,2536,2066,1450,0
-1046.9218647502355,-110.34975384931936,26.98996397458885,247492.69093858884,159710.78354938957,158220.0782625272,2526,2070,1452,0
-1036.0406163281882,-106.81712425097548,27.878582731325196,250085.2637952325,160680.09007231606,161162.61506732303,2518,2077,1451,0
-1026.3774735896134,-103.60910838903997,29.11752962866818,252873.8157430698,161564.07988496698,164336.0763907111,2500,2059,1450,0
-1017.9070685491149,-100.79910250935389,30.564756448750103,255787.5641805366,162385.3089531781,167709.8816056153,2426,2064,1452,0
-1010.6330225072679,-98.46723765075176,32.13080668040754,258766.3547406689,163164.04011546692,171254.34295679035,2387,2064,1451,0
-1004.5646988276093,-96.68553730907827,33.72770999011213,261763.39897413788,163911.05398142507,174939.39525376714,2287,2076,1450,0
-999.6959880832161,-95.50684250614441,35.24575038707138,264745.4153807544,164625.92418244024,178734.05166224047,2147,2080,1452,0
-995.9885355681921,-94.95628515801721,36.5573797202682,267690.83576186304,165300.2116036878,182606.57709822233,2039,2085,1451,0
-993.3645416464996,-95.02537966168455,37.535648512822135,270587.2785966616,165922.20699275535,186525.05241756406,1899,2100,1454,0
-991.7138027338204,-95.66951780523783,38.076228601452236,273428.6010646198,166480.81129346258,190458.13931672127,1698,2139,1455,0
-990.9103767885626,-96.80880215055299,38.11630517400671,276211.5366578739,166968.12659791362,194376.04030314562,1488,2135,1455,0
-990.8283726499228,-98.33374012843093,37.64333015283381,278932.86694904923,167380.5201825436,198251.23727703665,1323,2125,1454,0
-991.3510649971533,-100.11885428606911,36.687665281360886,281588.087629335,167717.85419835732,202058.7709223862,1183,2146,1455,0
-992.3741106128964,-102.04251709736454,35.30321492861358,284171.2908702047,167981.58401741786,205776.3855922325,933,2119,1454,0
-993.8046309681954,-104.00332923649471,33.548467673397425,286675.4736178562,168173.1269403002,209384.58365483116,868,2179,1462,0
-995.5583791082846,-105.92688064236003,31.47558134775215,289092.99968244834,168293.40753359973,212866.50271992944,710,2162,1458,0
-997.5574743153641,-107.76627560233182,29.127018234747418,291416.34450717916,168343.3546487792,216207.79048990176,628,2217,1628,0
-999.7295796289927,-109.50027991633686,26.537524078150767,293638.89665453485,168324.56081875955,219396.48879976015,486,2225,1628,0
-1002.0081105978511,-111.12906022254163,23.738563309443215,295755.52095154475,168239.57733063493,222422.89339852662,420,2299,1631,0
-1004.3325803929484,-112.66773468739565,20.762230575790106,297762.98704997625,168091.8050153019,225279.50522533327,323,2308,1634,0
-1006.6483993636878,-114.14015883128465,17.643185573116416,299660.2382028589,167885.2037483437,227961.00170043364,247,2313,1629,0
-1008.9062357260999,-115.57385425905146,14.418349742187358,301448.3568187009,167624.00552733862,230464.1239872624,253,2352,1635,0
-1011.0617390002817,-116.99503151287173,11.12573633653175,303130.3200389745,167312.49824909025,232787.54439211325,218,2381,1635,0
-1013.0758643789359,-118.42451831578765,7.8042669251683545,304710.62833577936,166954.93152762923,234931.68904377273,98,2387,1639,0
-1014.9150577986442,-119.87615435148224,4.494485883125267,306194.7498495855,166555.55649650184,236898.48990383296,71,2424,1637,0
-1016.5510289223441,-121.35734038115572,1.2385044208765954,307588.3924144615,166118.71201090852,238691.16283374233,58,2452,1638,0
-1017.960400379573,-122.8705070350715,-1.9213700211372942,308896.81019063573,165648.87272567215,240314.02095406858,15,2475,1648,0
-1019.1243732356057,-124.41491249140743,-4.944082859686808,310124.37899912946,165150.6515413073,241772.28324145207,0,2478,1645,0
-1020.0289224532393,-125.98866123018637,-7.79011043065258,311274.4728139025,164628.812369229,243071.9051048314,0,2515,1647,0
-1020.6659413618414,-127.59026104846944,-10.420334816797057,312349.4980323111,164088.34447761287,244219.4160387998,0,2552,1647,0
-1021.0347623577838,-129.21911614386275,-12.794354045521455,313350.97511468374,163534.53296943888,245221.7190245788,0,2540,1656,0
-1021.1430245813754,-130.87541170415977,-14.869561567434182,314279.6466664537,162972.90483409044,246085.8680933198,0,2565,1651,0
-1021.0061657017137,-132.5597917645743,-16.601539263643527,315135.56385941454,162409.05156143339,246818.86128648501,0,2582,1656,0
-1020.6453488042416,-134.27226805733366,-17.94538483183471,315918.1473154706,161848.38479957156,247427.46628024528,0,2605,1666,0
-1020.0844237285271,-136.00997159845076,-18.85754113962518,316626.27396343864,161295.86112845884,247918.07905444776,0,2592,1672,0
-1019.3473778733024,-137.7648717900929,-19.29761485934816,317258.32927191874,160755.7891211509,248296.6143992533,0,2596,1699,0
-1018.457530047142,-139.52355232902747,-19.22957769975202,317812.1646625566,160231.80619581824,248568.46251159944,0,2618,1698,0
-1017.4386631237969,-141.26994261990947,-18.621890199752826,318285.03286643914,159726.97841938885,248738.54228117186,0,2609,1701,0
-1016.3174879538248,-142.98990950926313,-17.447318868975398,318673.5960985894,159243.93323271265,248811.38544454923,0,2626,1709,1
-1015.1266700935824,-144.6766279126968,-15.684742692764456,318974.1505484536,158784.90896011246,248791.1198171025,0,2641,1711,1
-1013.9073690901761,-146.33500581511757,-13.322847542493456,319183.1915900857,158351.64180403066,248681.29815521493,0,2616,1727,1
-1012.7094891442584,-147.98138939009257,-10.362218512757378,319298.16065304837,157945.1837699168,248484.66830600955,0,2614,1720,1
-1011.5891235869975,-149.6380518855058,-6.814065250339825,319318.1466651874,157565.80112103658,248203.00854473768,0,2623,1732,1
-1010.6049632773934,-151.32619844413773,-2.696825312715002,319244.43336609175,157212.9618371511,247837.07438471878,1,2597,1772,1
-1009.8151968385006,-153.05859399020312,1.9678972565331823,319080.5883459577,156885.34805646274,247386.6618797401,0,2592,1773,1
-1009.2758142224569,-154.8318773662042,7.158013380170763,318831.82975374744,156580.88821833828,246850.72400831222,0,2542,1800,1
-1009.0411313398254,-156.62268312282905,12.850313597556891,318504.00052615855,156296.86025851395,246227.47455943923,0,2515,1822,1
-1009.1658007854653,-158.39165524885794,19.017805900872848,318102.7012921349,156030.12744301808,245514.54154259228,0,2427,1899,1
-1009.7064359650561,-160.09317527270238,25.627589003928758,317632.79281021515,155777.4727386815,244709.20094435473,0,2441,1885,1
-1010.7220468862806,-161.68379713526943,32.63989625993281,317098.30429042137,155535.85147938298,243808.56812408596,0,2383,1930,1
-1012.274399981639,-163.12539487481396,40.00770155841804,316502.7376667313,155302.4043495691,242809.5815553029,0,2350,1931,1
-1014.4294941489474,-164.38474567768648,47.676038968996956,315849.5846418985,155074.27492513743,241708.7387544376,0,2294,1970,1
-1017.2590686305861,-165.43228753216633,55.58067143100445,315142.7954216469,154848.42641363095,240501.772504381,3,2123,2047,1
-1020.8399061276739,-166.24102262623757,63.64717800842609,314387.09481549443,154621.5992345111,239183.44481761364,2,2116,2048,1
-1025.2508221457153,-166.78535874076005,71.79179891818904,313588.213474722,154390.40398988142,237747.45417990396,1,1984,1969,1
-1030.5697609510607,-167.03973389641234,79.92353207422171,312753.0765656342,154151.48284068223,236186.45155700052,0,2009,2001,1
-1036.8729227375263,-166.9772574690128,87.94664207145347,311889.90388977865,153901.70229820663,234492.13112952415,2,1886,2046,1
-1044.2352226446321,-166.56853404267173,95.76389535593498,311008.1911340077,153638.34767323788,232655.30783922737,0,1810,2095,1
-1052.729883113014,-165.78106412075192,103.28004640778747,310118.61919502413,153359.26921547693,230666.01936881695,7,1659,2195,1
-1062.4262332319786,-164.57975016318042,110.40526070629629,309232.8914150079,153062.97345393966,228513.71167596316,0,1528,2258,1
-1073.387239179764,-162.92826049697956,117.05915049370529,308363.45335055736,152748.6936842443,226187.47599077257,4,1487,2307,1
-1085.6682773324374,-160.7905757152639,123.1741167970055,307523.18444895506,152416.42634033342,223676.33810632324,3,1386,2336,1
-1099.316534253377,-158.1327385686441,128.69610017300226,306725.14711471484,152066.83712890657,220969.6135133184,2,1345,2395,1
-1114.3701114240794,-154.92525666053672,133.58295538656728,305982.3717055847,151700.97602478985,218057.30773211812,15,1278,2447,1
-1130.8572798758998,-151.14636577337,137.80066258631365,305307.694831099,151319.93665613298,214930.56993816124,4,1203,2457,1
-1148.7963585870637,-146.78558413595573,141.31766554593645,304713.69314813946,150924.6365241343,211582.20008537278,11,1099,2535,1
-1168.195219936062,-141.84607591376724,144.09978136818668,304212.7396310047,150515.74035076966,208007.1670970005,16,993,2583,1
-1189.049159926556,-136.34459427498385,146.1080451352462,303817.1814769138,150093.72522827965,204203.03492128805,5,871,2649,1
-1211.3371852751682,-130.30907029755323,147.29933640966155,303539.56602449436,149659.09771595246,200170.21433496947,9,901,2656,1
-1235.0175220103424,-123.77519651263091,147.62867132482322,303392.7984109845,149212.6847103197,195912.14381789905,10,781,2684,1
-1260.023354613712,-116.7827893230782,147.0534102287104,303390.10101657925,148755.9290844139,191435.4202088378,7,766,2714,1
-1286.25946108995,-109.37182932964961,145.53951055216893,303544.7096043533,148291.1840504059,186749.75585717562,16,713,2731,1
-1313.5993971779208,-101.57948342383176,143.06751734821012,303869.3903071457,147821.9452200314,181867.92252817788,0,658,2790,1
-1341.8832905632157,-93.43955962718546,139.63642391905609,304375.80257736455,147352.9029218879,176805.78940247514,0,666,2782,1
-1370.9168079077356,-84.98398515302469,135.26596855473997,305073.6557662694,146889.78778197608,171582.28234334296,0,632,2795,1
-1400.4704722588197,-76.2453230115976,129.99788946083126,305969.8405871284,146439.1205648185,166219.37418714268,0,681,2772,1
-1430.2794394737757,-67.25973100566529,123.8955846302988,307067.6958109446,146007.9182625287,160742.18891496572,0,640,2787,1
-1460.0453625484176,-58.07000775269273,117.04179290898406,308366.31579516374,145603.31244114708,155179.00579654603,0,644,2788,1
-1489.4390616408136,-48.728356203165305,109.53469793216667,309859.920226612,145232.15474372133,149561.26075216095,6,613,2806,1
-1518.102122239195,-39.29873470523506,101.48155405973758,311537.46622640995,144900.67105244834,143923.60561111063,3,623,2778,1
-1545.6480674700142,-29.859199190983013,92.98897055679032,313382.5701498816,144614.11322550572,138303.77626884033,0,694,2738,1
-1571.6628732825152,-20.50449028134303,84.15355377883247,315373.67613816046,144376.51514847588,132742.39966223927,8,744,2697,1
-1595.7044139041095,-11.348674277204957,75.0567812566286,317484.5515689371,144190.8181293277,127282.81375290845,0,785,2670,1
-1617.3019303628055,-2.526907118577486,65.76407414937279,319685.206048928,144059.47039931032,121970.61043268422,9,877,2626,1
-1635.9582541504742,5.80632723686073,56.32937606406226,321942.85334973555,143985.32619036912,116853.11161698498,3,967,2569,1
-1651.158461055605,13.483951839845018,46.806682962285564,324222.50907171646,143972.6706293695,111979.14486796744,16,1095,2489,1
-1662.3839763533106,20.33554749596053,37.26425417733545,326487.25019210606,144028.26758226345,107399.01590166971,13,1142,2399,1
-1669.1305801023059,26.19825707462593,27.794998573323095,328698.247514596,144162.20007886048,103164.46060793067,14,1219,2312,1
-1670.9317470490996,30.930101634908624,18.5192448710655,330814.7330948289,144388.26752696847,99328.46623748273,0,1351,2196,1
-1667.3833434910277,34.42149802547185,9.57942077213852,332794.23195170995,144723.8126494806,95945.11660347026,0,1411,2108,1
-1658.1675560764572,36.60378888494582,1.1267763253602765,334593.8295985767,145188.87983542314,93069.5539975515,11,1505,1985,1
-1643.0792558042053,37.461943076535164,-6.699288505296803,336173.06208902795,145804.84957236107,90757.81007319786,0,1630,1892,1
-1622.047097791798,37.0538228570172,-13.791155951530154,337497.66221016104,146593.08693499566,89066.3737110075,2,1640,1847,1
-1595.1323429657696,35.53182868556023,-20.07985340073772,338543.619734011,147573.87846050496,88051.18122172166,0,1742,1775,1
-1562.499955030084,33.16250251140041,-25.525321865404756,339301.7453834732,148765.4460595187,87765.67156774903,0,1747,1730,1
-1524.3788307881193,30.332220350879027,-30.097790135432408,339781.2798857919,150183.03562400752,88258.61805659333,0,1796,1680,1
-1481.0324052933554,27.51781793659656,-33.75999781584193,340010.32332015765,151838.13537752978,89572.75636130614,1,1852,1638,2
-1432.7469891701703,25.218174095331044,-36.45463981737649,340032.30140628124,153737.5136391925,91744.31569396149,0,1822,1631,2
-1379.8377829265198,23.878840312242527,-38.09989313825865,339899.6092006183,155881.97144434723,94803.05910105359,0,1871,1594,2
-1322.6681152257133,23.839217197224425,-38.59655957241579,339667.2351571981,158265.33371883119,98772.27316788095,0,1859,1578,2
-1261.6718619415904,25.30095643527394,-37.84394943091345,339387.8909607706,160874.54980583602,103668.20806199324,0,1898,1543,2
-1197.3694205680058,28.31460045664979,-35.754900295530575,339107.9396244491,163691.28187360277,109498.97937388529,0,1997,1465,2
-1130.3701303479677,32.7919953227682,-32.26411386476293,338864.2499180721,166694.24582301837,116263.31050785286,0,2009,1454,2
-1061.36045073762,38.54281802429018,-27.330739011420935,338682.65371697565,169861.48623978853,123949.41226346142,0,2008,1456,2
-991.0870330205038,45.31891394252474,-20.93720948194196,338577.5231666094,173172.34722089645,132534.1162035482,0,2010,1454,2
-920.3377528185803,52.85818031534059,-13.085817724205892,338552.11213525094,176608.8221628037,141982.75266463673,0,2011,1455,2
-849.9148961247105,60.93123035899126,-3.7943007747879065,338599.78418582573,180156.00309926606,152250.22632728197,0,2012,1455,2
-780.606437613274,69.38038009484171,6.906723687556394,338705.7551802655,183801.56874995053,163282.61068785226,0,2009,1452,2
-713.1615077518442,78.13521911581715,18.97140893622897,338849.2273557274,187534.33795586144,175018.9996250081,0,2009,1452,2
-648.2660002177549,87.20394060809248,32.33419643688525,339006.260300257,191342.3157962072,187394.22810538433,0,2009,1454,2
-586.524654650149,96.64886730192613,46.90876479739942,339152.7537013458,195211.0983030838,200341.5763156669,0,2010,1449,2
-528.4585597719948,106.55164965725515,62.59078604210729,339266.55054756766,199123.38516860156,213794.55321138777,0,2011,1452,2
-474.5141991482972,116.97097817435024,79.25982182114399,339328.55912994617,203059.536122926,227688.30143378378,0,2009,1453,2
-425.076898619685,127.90567553107357,96.77584337598968,339323.11024388165,206998.37291255157,241960.28768678338,0,2010,1451,2
-380.4830359588771,139.27814040913788,114.97060224233694,339238.0184527093,210917.89946129898,256549.8725374173,0,2009,1451,2
-341.0277427092875,150.93829229590486,133.63915723706344,339065.0404939744,214796.26236922282,271397.558384098,0,2008,1454,2
-306.9679583925075,162.67927811315266,152.53984130287455,338800.91189678514,218612.84182902257,286444.13929923833,0,2010,1452,2
-278.5195017396068,174.2602721663599,171.41364960366943,338448.8530859448,222349.31702274916,301629.96070263436,0,2005,1454,2
-255.84985797106424,185.4337070289327,190.02451762135593,338020.324364634,225990.79343707333,316895.11220593355,0,2009,1451,2
-239.0739194059061,195.9678270597668,208.19914738151317,337536.22605654947,229526.28066636942,332180.1437859309,0,2008,1452,2
-228.25548210629603,205.6586711693398,225.84261195369294,337026.64461763465,232947.4775921044,347426.7061455931,0,2010,1455,2
-223.4115151760397,214.33517456064857,242.9279529912161,336529.2271518975,236246.0454615608,362578.4861345049,0,2008,1453,2
-224.5163103035373,221.85978876599754,259.4737959598019,336087.2224909709,239410.9283973323,377581.90350198356,0,2011,1452,2
-231.50285676828983,228.12449590640156,275.52369990650595,335747.7667214216,242427.28630728784,392386.10116662324,5,2009,1454,2
-244.26067080218556,233.04446936858696,291.13266188095133,335560.14287838823,245277.24696889357,406942.9442681838,0,2006,1455,2
-262.63270443119427,236.5525507506358,306.3614374930756,335574.08171227307,247941.45562209823,421206.91939964204,0,2010,1449,2
-286.41506609889166,238.59564621546903,321.2786664353914,335838.16339773644,250400.66199623514,435134.6425488293,0,2010,1453,2
-315.3609656415112,239.1324010415784,335.96740272061464,336397.9109741357,252637.24638679868,448684.5131479857,0,2009,1451,2
-349.185820992473,238.13204350621714,350.52927360463127,337293.72090397694,254636.24899328605,461816.3511717303,0,2009,1451,2
-387.57132985119824,235.57436692082547,365.08149643859343,338558.8437719117,256385.5118833941,474490.8664680558,0,2009,1452,2
-430.170133160832,231.4499594572336,379.7479234783097,340217.1757018001,257875.30693385412,486669.5668527804,0,2010,1452,2
-476.61001353504514,225.7598158884013,394.6481602665603,342281.18091427936,259097.9078307101,498314.91214065754,0,2005,1454,2
-526.4961630389402,218.5139718419455,409.8846786752979,344750.414428777,260047.20642829966,509390.49439463735,0,2005,1454,2
-579.4138221149392,209.7297227697116,425.525664675759,347610.52193870634,260718.3498742225,519861.753317316,0,2005,1455,2
-634.9312400643208,199.43032262914866,441.58813243423396,350832.67280358385,261107.47620914213,529696.8149057379,0,2005,1455,2
-692.603299968325,187.64252545054305,458.0293913030542,354373.79151586746,261211.85168920763,538866.9281324068,0,2004,1455,2
-751.9784972929895,174.39067583004754,474.74830881357985,358177.6945466364,261030.6472655981,547346.897424982,0,2005,1454,2
-812.6065554232015,159.68876231328926,491.59189390704745,362176.5379576484,260566.11557139133,555115.3493396305,0,2004,1455,2
-874.0457565807038,143.53154045881013,508.36544083873446,366292.4290588238,259824.80254995826,562154.4775779624,0,2005,1454,2
-935.8738188690337,125.8844290133169,524.8469348085596,370439.70069221704,258818.5899724671,568449.5975248225,0,2008,1452,2
-997.6977406991082,106.67592987129518,540.801676329237,374527.4770588091,257565.18072988495,573988.5645052745,0,2008,1453,2
-1059.1559681397264,85.79639544204849,555.9947472046522,378462.35380099464,256087.49575520123,578760.8514105257,0,2004,1455,2
-1119.914669338644,63.10215481725055,570.2043926039939,382151.7609373329,254411.9838018679,582756.4484257109,0,2006,1455,2
-1179.6607240726873,38.42345545965914,583.2343867848648,385507.30014331074,252566.70456299916,585964.8536010131,0,2008,1454,2
-1238.0932410435967,11.577830047615578,594.9212116149972,388447.34228739265,250579.7634683286,588374.3526033012,0,2003,1456,2
-1294.9165224103208,-17.610367064301037,605.1369727221931,390899.43404603907,248477.84304316048,589971.677595341,0,2004,1457,2
-1349.834875446165,-49.28989302681596,613.788422670008,392802.28062796255,246284.90230538335,590741.9280783272,0,2005,1459,3
-1402.550566853571,-83.5688381856977,620.8104318483361,394106.68220667465,244021.30662650277,590668.6597975447,0,1997,1462,3
-1452.7673394717626,-120.50810994552185,626.1563107056687,394775.8170777267,241703.26281260018,589734.158227132,0,2003,1462,3
-1500.1963284153537,-160.11958597514692,629.7917723256779,394785.31594728143,239342.64577623722,587919.7972583369,0,2000,1461,3
-1544.5609453612064,-202.36587158323485,631.6968968948488,394123.0928601338,236947.35203968466,585206.3767628203,0,1996,1463,3
-1585.600926208578,-247.1577228551776,631.8730394843736,392788.82788053807,234521.83870692996,581574.5587452307,0,1978,1479,3
-1623.0734723299358,-294.3461986131362,630.3468530545254,390793.2079222475,232067.42937932955,577005.6001073667,0,1964,1496,3
-1656.7520631462187,-343.71124796578107,627.1658300345208,388157.2260093303,229582.46267020318,571482.4108944295,0,1972,1485,3
-1686.4282667894158,-394.9505685895413,622.3885032812344,384911.33436324715,227062.82305257395,564990.8686154602,0,1972,1482,3
-1711.9170389624524,-447.6700290956882,616.0794181545972,381093.97738794633,224503.22377727344,557521.3586759899,0,1964,1493,3
-1733.0638538770143,-501.3759488471003,608.3132681593746,376749.8603561447,221898.90263297263,549070.4294546903,0,1964,1491,3
-1749.756008771526,-555.4732831389498,599.1821421754083,371928.3405280178,219246.9902261807,539642.3083142884,0,1949,1500,3
-1761.9373574295255,-609.2739697717109,588.7985837648695,366681.80457386136,216547.0990273253,529250.1294126143,0,1947,1505,3
-1769.619600759233,-662.0121364101198,577.2927289186551,361064.5398868721,213801.15061593615,517917.0266333122,0,1949,1500,3
-1772.8865842077755,-712.8634763559376,564.8056002609014,355132.61347119464,211012.53567442484,505677.1057881504,0,1935,1514,3
-1771.8963649516734,-760.9689814825672,551.4808197973168,348944.32228943805,208184.76644159693,492576.1183878892,0,1933,1514,3
-1766.8852075459856,-805.4541297093726,537.4570938421944,342560.6702477097,205320.23834953227,478672.0081650542,0,1928,1525,3
-1758.1714656412657,-845.4405093742524,522.8606503098285,336045.17491699,202419.5881942383,464034.96252497484,0,1931,1524,3
-1746.1576520971298,-880.0625302335831,507.79414552498554,329462.36590112414,199481.6102015157,448746.2815163137,0,1925,1524,3
-1731.326050595169,-908.4925267140444,492.32620495343093,322875.6743519663,196503.83061406604,432896.87826122163,0,1909,1539,3
-1714.2122670274023,-929.9691347321319,476.4905733049277,316345.48204614484,193484.0823480571,416585.98797779647,0,1906,1539,3
-1695.353259955637,-943.8290761644884,460.29491294981267,309927.1088198336,190422.98824293105,399919.4789418335,0,1901,1549,3
-1675.236783494455,-949.540060756728,443.7315715086337,303669.17734708136,187326.60691676318,383008.5467123067,0,1908,1545,3
-1654.276350791842,-946.7376348837964,426.7895795143479,297612.98412012774,184208.65931604576,365969.65606466954,0,1904,1539,3
-1632.8104382231734,-935.2681355004872,409.4758975433727,291792.55256426684,181092.12287627306,348925.0363266504,0,1909,1539,3
-1611.115426426478,-915.2221059600408,391.8417895757784,286235.0726648181,178009.49557925368,332003.1156571186,0,1924,1523,3
-1589.4225653766186,-886.9489255802949,373.9941702584836,280961.5785344829,175000.37038162455,315337.26530278724,0,1941,1511,3
-1567.9302408447663,-851.0603029665215,356.0840688693907,275987.661711899,172106.16641358892,299061.2596123137,0,1944,1508,3
-1546.8026691110801,-808.422049159891,338.28536150140457,271324.26711079193,169364.71116747928,283303.7658487212,0,1958,1498,3
-1526.153170279891,-760.1291676207431,320.775468740964,266978.3957385398,166807.26467867085,268184.28815727116,0,1983,1476,3
-1506.0231117288256,-707.4742258953265,303.72011225822706,262953.33670360234,164457.76308764817,253809.8635844623,11,1982,1473,3
-1486.3652014726683,-651.9154581095489,287.26360671253076,259248.47832797564,162333.2905406149,240272.756681697,294,1982,1471,3
-1467.032128424093,-595.0379524463298,271.52579044309346,255858.73165755905,160445.51255447752,227649.8930808011,975,1992,1466,3
-1447.7764245712685,-538.5101590150066,256.60145443532895,252773.40068013873,158802.75287159407,216002.9972007284,1928,1996,1466,3
-1428.2744459154153,-484.01725673197126,242.54438518655485,249975.08310769184,157411.4574886317,205378.87239222467,2652,2005,1459,3
-1408.181457271288,-433.1080547228172,229.31605567614105,247440.80916757003,156275.10691282304,195809.48367060986,2844,2008,1455,3
-1387.1999452624657,-386.94726544918956,216.7188922267953,245148.00189061457,155390.33521175594,187310.8839710848,2937,2008,1458,3
-1365.131318624357,-346.1049242552047,204.38813810680927,243085.01788093458,154743.86761665347,179881.51840642435,3026,2012,1454,3
-1341.910987067761,-310.5500171386649,191.91351100246087,241262.16019259553,154315.26766072214,173501.8116816957,3027,2010,1452,3
-1317.6493884486636,-279.8642066384762,179.04750499073066,239716.31641933494,154085.38607636385,168136.31840845023,2874,2010,1451,3
-1292.6668313294995,-253.51039912961195,165.8427393816126,238504.1858386724,154043.43734940232,163738.11863583187,2797,2011,1451,3
-1267.4681208437735,-230.99512399602398,152.61476100760908,237685.65250919785,154185.78878200203,160254.04954931224,2581,2010,1450,3
-1242.64004725755,-211.90799439551301,139.78148602389817,237305.16596536903,154507.53257635602,157629.39870543292,2518,2011,1454,3
-1218.7326463803397,-195.8970681503842,127.71152493894024,237381.48642813825,154994.45080321858,155810.56323191302,2519,2019,1452,3
-1196.1806002196033,-182.62427056992996,116.65667517889943,237910.23643607632,155620.88094231175,154744.55859420224,2502,2020,1451,3
-1175.264253471286,-171.72615441809444,106.7476117561326,238873.58949344238,156352.8562491048,154376.3932928789,2600,2026,1454,0
-1156.0990453859613,-162.7990837269764,98.0117973404928,240248.17337317203,157153.03280491524,154647.0305544259,2762,2027,1452,0
-1138.6502056077527,-155.41304420648808,90.39451819230139,242007.46440108726,157984.795911022,155493.56718584424,2745,2035,1450,0
-1122.7721254151977,-149.14512874597952,83.78109665114775,244120.7517925565,158815.45895140036,156851.4358530136,2782,2041,1452,0
-1108.269060749547,-143.62357601066836,78.02481445643906,246551.30644639384,159619.47264661692,158657.76947653585,2777,2042,1450,0
-1094.954111870986,-138.56606184613418,72.97483867317595,249255.0337890876,160380.9260415919,160854.34973629794,2779,2042,1451,0
-1082.6855372257712,-133.79531704473274,68.49623994107839,252180.61573302594,161093.88038783555,163388.86356311163,2724,2069,1452,0
-1071.3810267135048,-129.22973393312122,64.48244112105398,255271.49697458083,161760.48117786914,166214.66947829025,2675,2065,1452,0
-1061.014876356037,-124.85980437531218,60.858182736926324,258468.93528418962,162387.98469467383,169289.75834333745,2615,2081,1452,0
-1051.6008534894293,-120.72374302788575,57.56772631998753,261715.6836234129,162985.35190464114,172575.3304843893,2532,2072,1450,0
-1043.167547222763,-116.88689236690146,54.5528647502675,264960.31979797396,163559.5863157477,176034.34037631223,2399,2077,1451,0
-1035.7369940850747,-113.42533190294407,51.73529258604083,268160.7215465261,164113.01256496285,179630.4207952955,2267,2077,1450,0
-1029.3115685195266,-110.41238076740487,49.01313691414124,271285.2268759549,164642.854470073,183327.51525192606,2123,2095,1455,0
-1023.8672606750964,-107.90429728928856,46.27173280241734,274312.084279974,165142.87735881645,187090.1389000975,1956,2096,1453,0
-1019.3535157430985,-105.92801290175571,43.40247905056891,277228.23520925816,165605.63651199287,190883.78266684423,1723,2091,1455,0
-1015.6997337102869,-104.4767131530388,40.32116191924375,280027.5903488893,166024.16985328088,194675.2650606272,1576,2105,1456,0
-1012.8249991038699,-103.51299277868952,36.979409130435286,282708.75139777956,166392.81065104424,198433.3552890816,1296,2161,1455,0
-1010.6462487384691,-102.97635959771667,33.366345726747355,285272.7398390462,166707.10409887924,202129.64049536816,1171,2147,1457,0
-1009.0822967700059,-102.79423764861335,29.501318765914846,287721.4541010952,166963.2610084739,205739.11050376762,1007,2166,1463,0
-1008.0552338042515,-102.8950488942338,25.421710173898173,290056.95807175885,167157.88920005638,209240.30915758817,753,2172,1463,0
-1007.4912387948083,-103.21777832685652,21.171939564091343,292281.30680877535,167288.1823933668,212615.3146012799,650,2226,1631,0
-1007.3210345297315,-103.7146899352811,16.79846965098613,294396.6028671477,167352.24308989185,215849.5983005388,465,2213,1632,0
-1007.4797347226928,-104.35013814914413,12.350162684251055,296405.10013971146,167349.2961750973,218931.71226139247,409,2211,1633,0
-1007.9062314379325,-105.09915325551091,7.8803231574081645,298309.3027394462,167279.77207053645,221852.9186420882,277,2239,1631,0
-1008.5426321462796,-105.94655826787688,3.4469487740709925,300112.0611745755,167145.2757113662,224606.8884577255,209,2268,1643,0
-1009.334254894888,-106.88572573600018,-0.8900935741925432,301816.71398646187,166948.4524790235,227189.5115909388,121,2296,1643,0
-1010.2301806042933,-107.91669674556009,-5.072796795576873,303427.2283459957,166692.82785758254,229598.72716524554,128,2306,1647,0
-1011.1838922006432,-109.04395825109646,-9.047651867967598,304948.2463581099,166382.64232673644,231834.2915352401,75,2344,1655,0
-1012.1536901242413,-110.27369154812054,-12.767823353130265,306385.037625376,166022.63602668833,233897.52746728904,47,2386,1656,0
-1013.102787034715,-111.61069202872334,-16.19499387013782,307743.32708030817,165617.83335580153,235791.05365266168,27,2437,1655,0
-1013.9990103103361,-113.05544117232,-19.29969588551742,309028.9491563437,165173.3955742549,237518.48142006889,7,2467,1660,0
-1014.8142942891074,-114.60142376963086,-22.060460289272616,310247.36388341,164694.5267650793,239084.14513641017,23,2475,1663,0
-1015.5243172692557,-116.23365445562841,-24.462993024281218,311403.15133171936,164186.43257922298,240492.8901436841,14,2496,1682,0
-1016.1084499682111,-117.93019562667274,-26.499089933479393,312499.62175410625,163654.32764219763,241749.9194014056,0,2523,1702,0
-1016.5499001688099,-119.66662962695739,-28.1644228229498,313538.59156048176,163103.45298163866,242860.7275464671,6,2499,1687,0
-1016.835897307398,-121.42065129920637,-29.455412933459044,314520.28976602794,162539.10792610116,243831.07255974464,0,2498,1696,0
-1016.9581749411884,-123.17425542269149,-30.365447442650822,315443.3891389645,161966.70310035133,244666.90730310208,0,2511,1714,0
-1016.914182174877,-124.91357713155017,-30.880453557049773,316305.1633877846,161391.7952357189,245374.2682951014,0,2483,1720,0
-1016.7087043902468,-126.62735307871777,-30.975264534266213,317101.6596204661,160820.07966008826,245959.1302618041,0,2511,1739,0
-1016.3551037960134,-128.30451520064491,-30.612615110363045,317827.80140369013,160257.30081614165,246427.2284517505,0,2534,1739,0
-1015.8758707302351,-129.93178993295413,-29.74478521802504,318477.46636510297,159709.03931487474,246783.88495243143,0,2560,1723,0
-1015.3027639291132,-131.49407669308965,-28.318448684320977,319043.5592845476,159180.43690275596,247033.88652844488,1,2535,1769,0
-1014.6764412180964,-132.97995122453173,-26.285507798489835,319518.2185425277,158675.82958117977,247181.44119553006,0,2564,1763,0
-1014.0443957725204,-134.38797232314772,-23.617353634308742,319893.41914690245,158198.15308553638,247230.20573579703,0,2572,1772,1
-1013.457122523066,-135.7274079358464,-20.31273456347397,320161.88190553157,157748.46964433708,247183.28580309995,0,2579,1775,1
-1012.9645933753291,-137.0142108801882,-16.393374571736356,320317.9358685492,157326.32436908892,247043.0470929645,0,2546,1799,1
-1012.6146372909792,-138.26564302592115,-11.891050420108874,320358.1026201829,156930.85321514282,246810.7603599877,0,2546,1797,1
-1012.4528934029328,-139.49517835778673,-6.835482162287298,320281.2445301442,156561.700930905,246486.34598193917,0,2492,1834,1
-1012.5228275378506,-140.70942212773534,-1.2494976144138075,320088.2578001325,156219.12851006252,246068.40874318895,0,2533,1843,1
-1012.8651865487783,-141.90701676563998,4.850034457753158,319781.5190904879,155903.50116903216,245554.50120189544,0,2489,1870,1
-1013.5181663947914,-143.0783551611935,11.449014918091475,319364.3774927804,155614.6998809617,244941.43599856648,0,2451,1878,1
-1014.519356212342,-144.20628906184012,18.531984524115316,318840.82959161856,155351.77432108828,244225.54150177666,0,2410,1943,1
-1015.9085530339713,-145.26788811822718,26.07818187815018,318215.3288991811,155112.79067125238,243402.86215591934,0,2435,1934,1
-1017.7302607117509,-146.23635610728294,34.05832829451261,317492.69322976907,154894.77545018302,242469.2911629708,0,2387,1955,1
-1020.0361186136417,-147.08260031879752,42.431635653550366,316678.0933803533,154693.7368064807,241420.61594234494,0,2259,2035,1
-1022.8870896514261,-147.77623209162564,51.14304383443848,315777.1005326762,154504.75169963995,240252.520123425,0,2226,2003,1
-1026.3541379308676,-148.28585736275187,60.121473227521996,314795.8144512032,154322.1428009565,238960.53243701515,0,2159,2091,1
-1030.5172088574134,-148.5791188782982,69.27978706364051,313741.0979642976,154139.768185511,237539.87070284493,0,2047,1979,1
-1035.4635006599717,-148.622844858448,78.51639846529287,312620.8857130671,153951.359134355,235985.2664422803,0,2025,2008,1
-1041.285586051179,-148.3830432835771,87.7189423335348,311444.47222088196,153750.8677130446,234290.8349100746,0,1923,2068,1
-1048.0793387728593,-147.82461503371243,96.77055554498895,310222.7075237283,153532.84651717197,232449.94228813561,6,1820,2133,1
-1055.9421273656112,-146.91115465239386,105.55648622497014,308968.0938781902,153292.7779811165,230455.14392919638,2,1711,2198,1
-1064.9718180900572,-145.6052612833003,113.9686734666588,307694.7366594373,153027.2173617111,228298.27540224983,0,1617,2253,1
-1075.265455097637,-143.86938093170158,121.90868304480159,306418.11606586096,152733.7163987624,225970.63583394577,0,1522,2315,1
-1086.9159637688638,-141.66709426004584,129.28891485691045,305154.83526055963,152410.61342172374,223463.2512317564,2,1458,2364,1
-1100.0069103349724,-138.96532638214381,136.03179513727295,303922.4749991477,152056.809195497,220767.23813916926,14,1334,2418,1
-1114.6068379887374,-135.7375397697655,142.06861894210954,302739.4952170561,151671.605956456,217874.22546168408,8,1327,2477,1
-1130.7649962627324,-131.96653811387563,147.33945193377915,301625.1573169109,151254.67456583085,214776.80468687188,13,1217,2501,1
-1148.5094802790356,-127.64533358813753,151.79386521813717,300599.42478844174,150806.15720277835,211468.93900908815,10,1229,2544,1
-1167.8474214485652,-122.77570625851013,155.39173952598358,299682.74809598306,150326.80257379665,207946.24973949295,3,1124,2594,1
-1188.7657509696282,-117.36538101939412,158.10342653559522,298895.80031939544,149818.01808721235,204206.2527523986,11,1094,2641,1
-1211.2316509491297,-111.42463860771963,159.90900816488644,298259.1762651801,149281.76267934957,200248.57541309437,10,1009,2686,1
-1235.192602185766,-104.96265392568901,160.79695478555692,297792.9250916165,148720.28869080564,196075.07176198656,13,1015,2712,1
-1260.575044973312,-97.98497892476566,160.7625214539084,297515.99013505,148135.87860448236,191689.94470130678,10,922,2731,1
-1287.2814768935878,-90.49364096731532,159.80585802495204,297445.64564209373,147530.6827546851,187099.92750706983,2,879,2753,1
-1315.1874361162027,-82.4894538446739,157.9299280802471,297596.86291408906,146906.6369058111,182314.37125091386,12,736,2767,1
-1344.139034007362,-73.97513509471595,155.13917397702645,297981.71374849346,146265.47428288677,177345.31609415766,8,715,2810,1
-1373.9510505840908,-64.95818489491596,151.43971738235393,298608.946473186,145608.86399533265,172207.6946097272,11,687,2820,1
-1404.4056527552796,-55.45340515404207,146.84089350855473,299483.64604618127,144938.638197404,166919.59752734628,1,671,2834,1
-1435.2521366199178,-45.485311286433046,141.35807741220626,300606.8541029286,144257.08272970185,161502.43445198055,0,686,2834,1
-1466.2081153562701,-35.0902859788113,135.0167866670287,301975.10175639327,143567.27697562944,155980.90414754968,0,643,2825,1
-1496.9605997891754,-24.318282044455312,127.85670455234352,303579.902528822,142873.38403628673,150383.00125764898,4,637,2848,1
-1527.1662019887547,-13.234320749521345,119.9336231404149,305407.2966309107,142180.73337864425,144740.15112355584,1,638,2839,1
-1556.452081856783,-1.9202566970157653,111.3184273946256,307437.4861806119,141495.63320670932,139087.23662651406,16,653,2824,1
-1584.4166927113288,9.523084361590053,102.09411249041895,309644.5993318791,140825.04562933985,133462.61087280206,15,687,2793,1
-1610.6280494721373,20.973934657078694,92.35193064776877,311996.75696983014,140176.28633983314,127908.17589557226,17,738,2796,1
-1634.6202883992873,32.28808341833622,82.18695802023464,314456.565771022,139556.8183548597,122469.28930189901,16,826,2750,1
-1655.8908469768373,43.29763104362883,71.69513761361493,316981.8122137175,138974.26973192106,117194.62199300021,23,970,2683,1
-1673.9023802453692,53.810899630270924,60.97508486923757,319526.27696940955,138436.90256233528,112136.05399458148,16,1045,2642,1
-1688.0928009348488,63.614794249999,50.135117113470265,322040.8220494671,137954.5774609402,107348.33256499928,21,1140,2532,1
-1697.8907460704777,72.47945496347013,39.30195072838571,324474.4228607784,137539.8511171221,102888.65772337063,0,1249,2426,1
-1702.7365486309566,80.16683781870665,28.62612874138495,326774.9760737118,137208.7696277294,98816.43491691505,0,1315,2344,1
-1702.1126364146241,86.44506705928968,18.28159412002461,328890.3200648185,136981.18148407104,95193.01694641008,4,1414,2234,1
-1695.5766873344821,91.10562260746686,8.45922931050701,330769.6085886729,136880.4999661713,92081.45779555506,6,1575,2105,1
-1682.7913831591968,93.98540536875191,-0.648646545424726,332365.5273571272,136932.7244327919,89546.15630243417,5,1597,2008,1
-1663.5548159232562,94.99953278344772,-8.874401490499439,333638.1150111032,137164.70034873098,87651.94655054342,5,1731,1900,1
-1637.8260468516028,94.1762477991571,-16.09966483257181,334559.388755635,137602.25062905918,86462.7264807411,6,1737,1851,1
-1605.7273301723553,91.68001944208541,-22.260914166369307,335117.72661858244,138268.71397527543,86039.65268535407,13,1814,1755,1
-1567.514027414821,87.82030963559322,-27.333543102693298,335321.7260369233,139183.71265357878,86438.63346375244,8,1855,1713,1
-1523.5283879611188,83.04485894537851,-31.309311787103763,335202.20027445967,140362.04713361576,87707.87409736375,6,1863,1675,1
-1474.1603196625924,77.90509590495249,-34.182877906025375,334810.595009117,141812.73033097337,89886.56443992538,1,1881,1633,2
-1419.823942860467,72.98766049779377,-35.94818785593675,334214.20595624915,143537.9861713288,93004.68624133636,0,1885,1594,2
-1360.9533810732412,68.83555974507496,-36.59683105079519,333490.5586087644,145532.3856795973,97083.27398876334,0,1892,1571,2
-1298.017485899709,65.88248030340334,-36.11522619311915,332721.66227913287,147782.7619344209,102134.64649196174,0,1929,1534,2
-1231.5436421703178,64.40293337210761,-34.48323876380904,331986.9848198592,150269.28530180737,108162.39241212523,0,1971,1481,2
-1162.137591383982,64.48877393632777,-31.677713507305295,331356.3672923793,152967.3242226178,115160.91690260464,7,2000,1463,2
-1090.4872703467975,66.06834389275336,-27.6816086030404,330884.98485067976,155849.96182197233,123114.62245939333,0,2010,1455,2
-1017.3486606193075,68.96046603817817,-22.494612190932067,330610.4448183623,158891.34363458536,131997.15138789886,0,2007,1458,2
-943.5262611085626,72.93296267849597,-16.138469748688216,330552.03553948744,162069.70802131545,141770.95005130948,0,2008,1455,2
-869.8536868293024,77.75036268357778,-8.654089980403379,330712.6109516492,165368.60749985636,152387.705084613,0,2011,1452,2
-797.1678779706654,83.2188874275462,-0.09410639874480806,331082.57470737444,168776.26906547594,163790.1607281312,0,2012,1451,2
-726.2807061370555,89.2240890374827,9.484320682263576,331644.172457634,172283.79450902258,175914.3924062251,0,2008,1452,2
-657.9527147024688,95.74315900974496,20.026418697429133,332374.9450416713,175882.8142326367,188692.0089799112,0,2010,1451,2
-592.8675102258055,102.82705738294956,31.486338327580466,333250.5250189534,179563.24193870727,202052.92780964135,0,2008,1455,2
-531.6171672454958,110.56431710060257,43.827925860854585,334246.4666249981,183311.85728593153,215927.8568402198,0,2010,1451,2
-474.70693564029216,119.0393014746212,57.015431419041306,335338.7259672305,187112.1037253735,230249.51567246235,0,2008,1455,2
-422.56957802711486,128.2909781283892,70.99770944453957,336503.47325737844,190944.84432004084,244953.2571444348,0,2006,1455,2
-375.57783477436317,138.28321357993678,85.69434146117565,337717.0245022032,194789.39001838656,259977.0540730711,0,2008,1453,2
-334.0510000956953,148.89738691753703,100.9875892787067,338956.38316389377,198624.53334314725,275260.5986495296,0,2009,1452,2
-298.25582320211197,159.94302036135292,116.71778699945357,340200.63084339874,202429.75017571298,290744.2782871853,0,2010,1451,2
-268.4052270673512,171.1750449311141,132.68302755758765,341432.74233650323,206186.24157427726,306368.27427845163,0,2006,1451,2
-244.65749205789498,182.3146744600813,148.6533658228457,342641.4317704567,209877.67350600206,322071.96526206017,0,2010,1452,2
-227.11556438490487,193.07494226671142,164.40504204769965,343822.99368370924,213491.00620620477,337794.1649834419,0,2006,1453,2
-215.82715169268235,203.18374166538587,179.75925527020172,344982.468686894,217017.05764535084,353473.57172835927,0,2010,1454,2
-210.7867751995735,212.39947598479085,194.60581083443347,346133.1347246826,220449.8915132573,369049.10440267617,0,2008,1455,2
-211.9392592321127,220.52317671921196,208.90724657116007,347294.31235066225,223784.90873616908,384460.8634270085,0,2009,1455,2
-219.18301230417947,227.40609604861996,222.68801251031113,348488.60075200256,227016.5659113589,399651.18098590063,0,2007,1458,2
-232.37146456024857,232.94786220155785,236.01491166654577,349739.3458790105,230136.84060533362,414565.19093135046,0,2010,1452,2
-251.31301787405147,237.08715750296895,248.97581374394466,351068.2553037917,233134.87571352947,429151.61377672397,0,2010,1452,2
-275.7712803627037,239.79152819696296,261.6644211870947,352493.3479080487,235997.5234895552,443363.4219569806,0,2010,1454,2
-305.4683439697841,241.04870983670864,274.1749393421195,354027.46474158246,238710.5448086056,457157.8096596043,0,2010,1454,2
-340.0930028598181,240.8579901225736,286.602507913785,355677.01543837204,241260.296266133,470495.994363561,0,2009,1452,2
-379.3101157052128,239.22281760498794,299.0427735143007,357440.90204309893,243635.12057540903,483342.7962486654,0,2008,1452,2
-422.7673621186482,236.14687950169767,311.5861919093962,359309.8785717884,245825.71279590545,495665.8986428809,0,2009,1451,2
-470.10074948267834,231.6333136262349,324.3065313640391,361266.37097537395,247824.66139040247,507435.43786910875,0,2010,1451,2
-520.9382622966234,225.68551417322627,337.2484855003727,363284.62456112425,249625.7166957949,518623.8202566868,0,2008,1453,2
-574.9010890220869,218.3070271616031,350.4203653534695,365331.2013628065,251223.2394943952,529205.4922950498,0,2009,1453,2
-631.6051566824555,209.49863381156874,363.79306669870874,367365.8427626521,252612.10192359233,539156.9870920945,1,2009,1455,2
-690.6624517605344,199.25357191229645,377.3023791444039,369342.2967892915,253787.98473810265,548456.9501580445,1,2008,1453,2
-751.6823032322399,187.55149795702027,390.8521127611611,371208.88552527153,254747.98036811015,557085.8241181235,0,2009,1453,2
-814.2757496465239,174.35088423082473,404.3174933967892,372909.132200953,255491.4621370503,565025.5821035021,0,2009,1454,2
-878.0600613037632,159.58243978775735,417.548619331327,374382.60468521103,256020.85775891054,572259.4690700058,0,2008,1451,2
-942.6599660941271,143.1464298168807,430.3760672852738,375566.2145904742,256341.91996242688,578771.5621553047,0,2008,1452,2
-1007.7080973482321,124.91420304876229,442.6212898288748,376396.2917031623,256463.5021272312,584546.4245239268,0,2003,1456,2
-1072.8442888636948,104.73361371726524,454.10869333417475,376810.8822304871,256397.03711543037,589568.7944989215,0,2005,1454,2
-1137.7122563233493,82.43788310704366,464.6764480345318,376751.8346938251,256155.71789983995,593823.07695238,0,2008,1453,2
-1201.9567012189973,57.85648648970826,474.1875928072727,376167.02782696777,255753.33684976128,597292.788610507,0,2006,1455,2
-1265.2212619782354,30.825516241550186,482.5389647132854,375012.49215134245,255203.06402213196,599960.0808382418,0,2010,1451,2
-1327.1462239157843,1.195896523591426,489.66190380237254,373253.92662809824,254516.27715431683,601805.3867800201,0,2008,1452,2
-1387.367604135551,-31.16019494993835,495.51383147679803,370867.8227829461,253701.2735883118,602807.3368165684,0,2005,1457,2
-1445.5168451265388,-66.34435890090242,500.06656830795265,367842.402895478,252762.22095714437,602942.9067506695,0,2009,1451,3
-1501.2213556984666,-104.42870113476079,503.2982292426097,364178.34742780635,251698.89391819492,602187.6894370589,0,2007,1455,3
-1554.1088028811876,-145.45337564168767,505.19053717416756,359889.36895871325,250507.11408460521,600516.3134880499,0,2006,1458,3
-1603.8120077774092,-189.4216892229461,505.7286681797142,355002.65514786344,249179.42432979099,597902.9802608313,0,2004,1463,3
-1649.9709769410345,-236.28891738712838,504.8994822658413,349558.975100623,247705.70823681532,594322.1324689237,0,2004,1461,3
-1692.2350527745932,-285.9446178076389,502.6869782856751,343612.2729574912,246073.77029372187,589749.3863829712,0,1999,1462,3
-1730.2667324374531,-338.1929643634298,499.06834994884326,337228.9574167114,244270.02184991448,584162.7030076175,0,1978,1478,3
-1763.749345172436,-392.73610763201606,494.015077997794,330486.580318823,242280.6073392978,577543.7086831882,0,1977,1477,3
-1792.4022875017313,-449.16313577772206,487.500897389959,323471.3443529267,240093.21043656996,569879.2020219861,0,1973,1484,3
-1815.9985810872513,-506.9458655184994,479.5142885619388,316275.2854198101,237699.0338524599,561162.7886351435,0,1973,1483,3
-1834.378907644061,-565.4445370249355,470.07194940747206,308993.78267905425,235094.16564635184,551396.3504147399,0,1968,1491,3
-1847.464149354696,-623.9241544843777,459.2304108687361,301722.89656052977,232280.08425352044,540591.1477110988,0,1958,1494,3
-1855.2648878558464,-681.5715536912219,447.09209640273764,294557.0794625581,229263.46467684882,528768.7274783113,0,1952,1504,3
-1857.883272467389,-737.5049048318207,433.8028405660984,287587.7200555822,226055.34790553612,515961.641880381,0,1944,1504,3
-1855.5090089442199,-790.7788625603366,419.54113956749535,280901.61460325675,222669.78633402463,502213.8028066013,0,1946,1509,3
-1848.4157125952997,-840.3897553383609,404.5043783302209,274579.1989628737,219122.65570475475,487580.8940298966,0,1947,1507,3
-1836.9608788219577,-885.2895437363583,388.89850357426496,268692.4935712842,215431.21260134628,472130.8779454216,0,1941,1512,3
-1821.5849009228352,-924.4165124810307,372.93402019382364,263302.0811561084,211614.24441455744,455943.9631174209,0,1936,1517,3
-1802.8006514196156,-956.7315917240069,356.82773175031906,258453.81403704974,207692.6522930509,439112.3100056706,0,1941,1513,3
-1781.1657690061197,-981.2548280343617,340.80337901447274,254176.09331149748,203690.61319874032,421739.5833363033,3,1946,1506,3
-1757.2408241411827,-997.1159190680429,325.08296374681674,250477.4250556639,199637.3246717415,403939.86333453306,6,1945,1508,3
-1731.5533695564495,-1003.6149600292797,309.87541779962777,247344.910220919,195568.68500102806,385836.9856595596,0,1949,1506,3
-1704.5795939022178,-1000.2789092640105,295.3748340438059,244744.91430927807,191527.4264078707,367565.06791472225,0,1961,1496,3
-1676.7371218761089,-986.9130065142019,281.75931194800376,242625.64426130036,187560.7245730931,349268.9111632399,0,1958,1493,3
-1648.3848032300593,-963.6400238516869,269.17740398569254,240920.45523700962,183716.2818334429,331103.3609521326,0,1962,1493,3
-1619.828986214951,-930.9161547911646,257.7284048555536,239552.00369626834,180038.20832057385,313230.39970318874,0,1965,1489,3
-1591.3314721800389,-889.5252539428274,247.44364283093307,238437.78772381236,176563.2711003244,295812.8505592976,0,1970,1483,3
-1563.1128731105564,-840.557956860079,238.27187323341906,237495.7062099755,173318.80511237506,279007.3372116167,0,1971,1484,3
-1535.34464875008,-785.373385824589,230.07688163821237,236648.61423241586,170323.34892788532,262958.7050532742,0,1980,1475,3
-1508.1285586539889,-725.5423820401606,222.6508690882388,235828.52897627614,167589.2208720884,247794.91621499995,15,1988,1469,3
-1481.4763465355127,-662.7907483039902,215.73684627003266,234980.07142049487,165125.339273906,233623.40944770593,283,1995,1463,3
-1455.3046713139756,-598.9476605895609,209.0540946031737,234062.24615544995,162939.25824105405,220530.38412660072,798,1997,1462,3
-1429.4458987122296,-535.8818958141584,202.32611735606932,233049.0454254604,161038.4894990324,208581.5725226068,2105,2009,1453,3
-1403.670097902522,-475.42554436443146,195.30068237821902,231929.58687512978,159431.08910926362,197823.218320243,2844,2008,1455,3
-1377.725720136588,-419.26089200931875,187.7411292108135,230708.23101386143,158124.44703352865,188282.71279991211,2985,2012,1454,3
-1351.402364487073,-368.72916565662445,179.40408311437665,229406.74375274847,157121.8983896759,179967.6032952189,2954,2012,1453,3
-1324.5925578498616,-324.62273312529845,170.06747351953211,228071.18064601283,156419.57783967577,172862.84446493743,2955,2012,1449,3
-1297.338731717348,-287.095945436287,159.6279562758266,226780.24525441634,156006.32409341892,166928.86462102266,2913,2012,1454,3
-1269.8707686650077,-255.77244294991397,148.19843019062702,225644.50949598334,155866.16399669583,162103.68102493574,2880,2012,1454,3
-1242.6080669824069,-229.9978213189248,136.13127925322314,224790.27762493218,155980.36410532714,158309.27503333942,2774,2011,1452,3
-1216.1010261944932,-209.0716938822956,123.95505102985022,224336.19319099182,156326.69987369867,155459.16381536637,2622,2009,1456,3
-1190.931268222904,-192.34608888683013,112.25822534779714,224374.96314123966,156876.37270918512,153465.12572320577,2650,2011,1452,3
-1167.6021213637657,-179.22345479144184,101.56354843294399,224964.20095350544,157591.25496954215,152242.7862651665,2618,2011,1451,3
-1146.4566853501478,-169.12651710412166,92.24146965608676,226125.40940646175,158423.99113478,151714.7318716858,2793,2010,1454,0
-1127.647489138193,-161.4782987891477,84.4876795297847,227849.40398461578,159321.7872627817,151810.25827599317,2863,2028,1450,0
-1111.143212802153,-155.70467949041262,78.34199378590894,230104.64232215128,160232.79198573294,152463.54994394514,2939,2021,1453,0
-1096.7540994330056,-151.2553061470157,73.71653036337467,232843.99819738785,161112.2517082653,153612.91367451596,2937,2026,1452,0
-1084.1795551345617,-147.63482282118227,70.42526920420929,236008.0120722002,161926.242821642,155201.66881894946,2983,2042,1451,0
-1073.0806367538296,-144.4381752717384,68.22570703490459,239526.7762762076,162653.3483132107,157179.5349181017,2981,2038,1454,0
-1063.152690536567,-141.37782975401151,66.87319139969335,243322.9322146526,163285.2831911541,159503.53824459325,2936,2047,1449,0
-1054.1692763959318,-138.2923736985998,66.16579717760128,247315.43600670804,163826.23474882008,162137.8680615763,2905,2039,1448,0
-1045.993944239418,-135.13432324419813,65.95835998178607,251423.53541971347,164289.76615075563,165052.27170895305,2898,2045,1450,0
-1038.56782153893,-131.9376822250861,66.14577512709357,255571.42697750783,164693.17479253034,168219.28358581383,2827,2047,1450,0
-1031.8825745170357,-128.7779976593723,66.63425705961221,259692.5914219041,165051.8172034645,171611.51450357426,2749,2037,1450,0
-1025.9498967578365,-125.74248636565473,67.31963508480992,263732.5242151234,165375.91611051763,175200.08340664278,2668,2054,1452,0
-1020.7759777336214,-122.91213412117372,68.07899987721561,267650.1006432234,165669.84646159748,178954.11548418732,2510,2058,1456,0
-1016.3478995284651,-120.35110517522152,68.77470653839457,271417.5777046971,165932.9707904341,182840.69019892477,2378,2061,1451,0
-1012.63209576372,-118.10107633833944,69.27063961499822,275018.80561937724,166161.61924008996,186825.10248634664,2226,2065,1452,0
-1009.578730848884,-116.17795229496586,69.45720677445854,278446.0067246799,166351.60855118264,190871.77377205528,2018,2074,1450,0
-1007.1277758658224,-114.57059210490068,69.2717939463991,281696.31449685426,166499.97028046817,194945.66080677498,1865,2080,1450,0
-1005.2141671833457,-113.24282881194115,68.70080711049282,284769.24191280955,166605.18238808034,199013.36081626813,1758,2090,1454,0
-1003.7708150811707,-112.13994903203546,67.76360844632377,287665.33026122395,166666.52310071833,203043.6757799035,1596,2084,1449,0
-1002.7301989162065,-111.19846148423163,66.4919664454726,290385.5363060749,166683.3566329479,207008.06206442532,1330,2072,1454,0
-1002.0260624176542,-110.35624668834477,64.91717378264892,292930.940025786,166654.8356878997,210880.96196662562,1215,2089,1459,0
-1001.5959329234206,-109.5615875678122,63.06662143003626,295302.67418305716,166580.20599936164,214639.8226870282,1069,2083,1458,0
-1001.3832066786732,-108.77905841430608,60.96636873424618,297502.1029323387,166459.46263976072,218264.9724433718,844,2104,1467,0
-1001.3376620398348,-107.99043520231932,58.64631630576666,299531.0858637311,166293.8397187587,221739.4469246526,667,2088,1463,0
-1001.4151221847434,-107.19222784286615,56.14488309967697,301392.2249903289,166085.7611447391,225048.8195299895,608,2120,1469,0
-1001.5771884644932,-106.39271683137613,53.51044975603757,303089.1645379947,165838.34262188268,228181.17559551777,485,2128,1463,0
-1001.7907058161593,-105.60916472384815,50.79792655544414,304626.81457649876,165554.8649548172,231127.102947658,414,2153,1463,0
-1002.0266472214,-104.86446466020983,48.061908606344964,306011.3569191596,165238.49404414886,233879.57578899746,304,2147,1465,0
-1002.2590402517576,-104.18375809151456,45.350838459117156,307250.1121479139,164892.20776880247,236433.844324258,256,2158,1467,0
-1002.4644373663062,-103.59172670081816,42.70508352729132,308351.31609433657,164518.83768921104,238787.30936647992,221,2184,1634,0
-1002.6219355816235,-103.11012502627729,40.15824877640383,309323.7908317267,164121.20757898485,240939.30232204322,179,2203,1636,0
-1002.7136702101038,-102.75578973683758,37.740069245219786,310176.5599908172,163702.33723885458,242890.83862062672,130,2206,1633,0
-1002.7259611270865,-102.54011178023873,35.4799377746463,310918.49632642436,163265.61306428548,244644.37243144252,77,2208,1642,0
-1002.6514231804142,-102.47015527684098,33.41004375626171,311558.04464831646,162814.7806668111,246203.5512830358,63,2227,1637,0
-1002.4911063298803,-102.5503629963048,31.566590106809674,312103.0147111795,162353.714994227,247573.02069155744,37,2266,1637,0
-1002.254645374493,-102.78346782095207,29.988278200465363,312560.44785953796,161886.1336842245,248758.26025869537,41,2286,1648,0
-1001.9580843420555,-103.17047527273436,28.713083994990345,312936.5606688588,161415.43395666822,249765.3991755066,0,2313,1651,0
-1001.6213282681567,-103.71057331277984,27.77571374875254,313236.7427813075,160944.66120844608,250601.0240081654,0,2287,1672,0
-1001.2668390741633,-104.40127711759555,27.207284403090455,313465.59639956907,160476.5462816992,251272.00253453237,9,2273,1680,0
-1000.9194910959666,-105.23830026982264,27.036404599905946,313627.015597298,160013.55216593656,251785.31991017715,0,2266,1687,0
-1000.6068049994739,-106.21476467549222,27.290043067621497,313724.27396884805,159557.88453571105,252147.91613835708,0,2266,1702,0
-1000.3589389101596,-107.31991085913157,27.993749758342023,313760.0932543885,159111.45574204743,252366.503002943,0,2264,1722,0
-1000.2082702141631,-108.53761815791857,29.17171926903848,313736.68426636566,158675.81865712904,252447.35124606846,0,2279,1722,1
-1000.188749039262,-109.84531293547624,30.847092688683656,313655.73567362,158252.12410828166,252396.09526555368,0,2271,1732,1
-1000.3349630002585,-111.2140046912888,33.0428407285199,313518.3276933924,157841.1299544412,252217.60154843525,0,2277,1747,1
-1000.680906036889,-112.60932102327769,35.78345066960081,313324.7862563518,157443.2240595702,251915.89381091626,0,2291,1753,1
-1001.2593410221382,-113.99270413730821,39.0963945855847,313074.5322502133,157058.43238939435,251494.13572475692,0,2276,1755,1
-1002.1028333057636,-115.32411487623415,43.008781566214125,312765.9707832716,156686.328529921,250954.69452092194,0,2288,1755,1
-1003.2458991819134,-116.56947859706573,47.53343184109214,312396.46393871057,156325.7040643523,250299.28125175086,0,2295,1769,1
-1004.725772022158,-117.70903849635496,52.65150396334945,311962.53774469934,155974.11307180198,249529.12662580417,0,2269,1789,1
-1006.5804264729304,-118.73729178230069,58.31025585462887,311460.51155408274,155627.75986818704,248645.11541405937,0,2277,1806,1
-1008.8466643039814,-119.65672185038838,64.43785838267426,310887.36825455556,155282.11427454735,247647.80419349196,0,2279,1806,1
-1011.5611858155223,-120.47432463355767,70.95864405321677,310241.33068324544,154932.90746282978,246537.36933343686,0,2244,1818,1
-1014.7631126448331,-121.19944296752803,77.80041067988769,309521.9374864508,154576.63492627564,245313.60084500414,0,2275,1832,1
-1018.4957315355196,-121.83960102123187,84.89619179924054,308729.92100384657,154210.3048280238,243975.94955336422,6,2151,1883,1
-1022.8075442145599,-122.39807231697773,92.18274479971971,307867.2089610832,153830.9690048934,242523.58030843266,0,2213,1887,1
-1027.7529352899408,-122.87461243906898,99.59835503540472,306937.0985705798,153435.48690588656,240955.36246780492,0,2212,1883,1
-1033.3920996364272,-123.26635687754754,107.08208491258779,305944.47095742996,153020.5533375058,239269.73691925776,0,2131,1939,1
-1039.7900302048085,-123.56692940541572,114.57453479829816,304895.88656749134,152582.8636795183,237464.55970217683,0,2163,1947,1
-1047.0149015413404,-123.76386879746072,122.01972710052397,303799.50799659896,152119.31159482812,235537.0350326304,0,2066,1834,1
-1055.1363439896725,-123.83582136936116,129.36705505103967,302664.9509762733,151627.1585523636,233483.7124277828,10,2117,2013,1
-1064.2239422291796,-123.75117572973372,136.5722637565877,301503.07845076016,151104.12005174896,231300.48503245268,0,1970,1872,1
-1074.3460504948694,-123.46862641102437,143.59707263174496,300325.65325489757,150548.34053166368,228982.57206847565,7,1948,1899,1
-1085.5686017910548,-122.93907065776938,150.4070738865168,299144.97615755047,149958.31298477564,226524.5783668486,3,1913,1963,1
-1097.953481576115,-122.10829813395304,156.96811630409462,297973.66069115227,149332.79291072013,223920.67044887607,5,1841,2006,1
-1111.5564653571803,-120.92006877025871,163.24225305675412,296824.49248947715,148670.7034316443,221164.77026257335,6,1779,2068,1
-1126.425055231816,-119.3187332408512,169.18465359678316,295710.35336461273,147971.08571787577,218250.76193942456,1,1710,2126,1
-1142.5968730305285,-117.25109992576044,174.74230471164378,294644.2046214185,147233.16852335687,215172.73112503602,0,1596,2161,1
-1160.0990552283263,-114.66800186251908,179.85422935007048,293639.05516256293,146456.53876838702,211925.18637227803,4,1565,2235,1
-1178.948039199409,-111.52560168754498,184.45231082160865,292707.9424959602,145641.3308369397,208503.31115105702,4,1562,2239,1
-1199.1494137281095,-107.78641818421663,188.4624675948415,291863.9814794518,144788.33293942997,204903.24483941036,5,1439,2336,1
-1220.6980444693659,-103.42029791569952,191.8067420416354,291120.44287641114,143898.96223924172,201122.2929574683,0,1468,2379,1
-1243.577415544968,-98.40507211921921,194.40597069988024,290490.8293855023,142975.17961029758,197159.14239127244,9,1275,2431,1
-1267.7574789145801,-92.72596813346401,196.18228938631907,289988.90013418224,142019.3978698212,193014.12340707824,7,1255,2451,1
-1293.1920862801467,-86.3733785491859,197.061409523541,289628.56602608896,141034.36500313887,188689.3990127601,8,1168,2492,1
-1319.816237820452,-79.34045071088796,196.9745884040294,289423.6792723898,140023.0893218385,184189.14693249704,12,1076,2537,1
-1347.5424484041023,-71.62219908322486,195.8610587861448,289387.73615879694,138988.89010100003,179519.77610977823,10,1007,2596,1
-1376.256727538713,-63.216101882859014,193.67193634007916,289533.4441540832,137935.53347259658,174690.0484356822,9,927,2641,1
-1405.8147946582076,-54.123460061112716,190.37470719951818,289872.21422613354,136867.3874789412,169711.2067033103,12,864,2678,1
-1436.0382868224651,-44.35115757270422,185.9572212313503,290413.5733819724,135789.5357149868,164597.16617721965,8,816,2714,1
-1466.710896428419,-33.91360826526388,180.4311841727722,291164.3781652382,134707.79004188319,159364.60825350008,14,767,2730,1
-1497.5753745058853,-22.834793994912772,173.83438778352192,292127.95717293164,133628.61627540208,154033.09385354462,1,718,2751,1
-1528.3323699811403,-11.15041743696936,166.23067121335825,293303.3716769035,132558.99738300982,148625.373615584,0,684,2776,1
-1558.640249792794,1.0897152892058588,157.70769920567827,294684.76865511097,131506.22204243083,143167.7967349762,0,594,2796,1
-1588.1149063964517,13.818849110965976,148.37187433187486,296260.80308847333,130477.54835853665,137690.6272776686,0,584,2808,1
-1616.329331333518,26.94988887018463,138.33984291578955,298014.1708939534,129479.73512209547,132228.16552500642,0,567,2811,1
-1642.8120331312482,40.371624491319686,127.73005348618224,299921.3210139266,128518.67784310394,126818.85692438907,11,581,2820,1
-1667.0459173294937,53.944979743725675,116.65884183638994,301952.51883922087,127599.47146863514,121505.44572052146,15,584,2809,1
-1688.4710899796837,67.50029948726159,105.24216905390193,304072.29975321906,126726.954033154,116334.93048231058,15,612,2813,1
-1706.4921100853078,80.83713793152008,93.60209046017604,306239.94966595154,125906.54404729346,111358.4189513853,17,704,2740,1
-1720.4920190535086,93.72852544162693,81.87612263259646,308409.67147572985,125145.2325019708,106630.97174951834,17,741,2666,1
-1729.8548395213375,105.92983669304628,70.22600064190887,310530.472400644,124452.58954107216,102211.22888001968,15,889,2592,1
-1733.989484274048,117.1871403124519,58.840748068253184,312545.99658799724,123841.38920271394,98161.01999472918,16,926,2448,1
-1732.3542273570763,127.24229693315463,47.927746141267065,314394.9546756764,123327.453229924,94545.12677130688,11,1073,2343,1
-1724.48998751181,135.84046882397095,37.689674040583995,316012.8300532459,122928.7944071032,91430.90982145874,2,1172,2239,1
-1710.0573019406531,142.74530327201052,28.297091357087293,317334.6932485735,122664.58492663509,88887.70216763036,1,1301,2140,1
-1688.8646612849311,147.76624712785542,19.867894413861915,318299.45187863865,122554.32816727183,86985.59744133602,0,1389,2061,1
-1660.8846341252467,150.7990710425269,12.454924076992326,318856.07741468144,122617.31910664233,85793.12027208554,9,1519,1951,1
-1626.2552633082555,151.86366872495873,6.04421795813377,318970.046509103,122872.54501027969,85374.48777083083,1,1607,1858,1
-1585.2596579007436,151.1193629461369,0.5720755683259799,318628.2183961351,123339.0738028917,85787.35949783727,0,1718,1767,1
-1538.2847172797115,148.8557712189915,-4.041967475893636,317842.37242225796,124036.58255994563,87081.04132903107,0,1789,1700,1
-1485.7808864449119,145.46690913798952,-7.863020471306971,316651.1284396431,124985.2598885181,89295.32906200488,0,1797,1662,2
-1428.2436412084999,141.40622303615254,-10.919024955769201,315119.05134524836,126203.93147086164,92460.36318600197,0,1819,1635,2
-1366.2125657707377,137.12165574772928,-13.188567365603484,313332.68042848405,127706.10898673686,96597.06060187264,0,1868,1591,2
-1300.2781572487224,132.99423048411447,-14.600494486208778,311394.62113000866,129495.62284349611,101717.27479030876,0,1911,1551,2
-1231.091528492829,129.30264796635564,-15.049432862849784,309415.50654897623,131563.68097506696,107823.35544746515,0,1960,1495,2
-1159.3676711491846,126.21186443356385,-14.42596733644632,307502.9613920869,133887.8145201821,114907.33493071969,0,2003,1460,2
-1085.8770787209794,123.77903223592703,-12.650025056279308,305750.8278461281,136432.80425362237,122950.08809935635,0,2005,1459,2
-1011.4262735197971,121.97640558345095,-9.695155051473762,304232.4459417869,139154.42160480062,131921.1444270617,0,2011,1453,2
-936.8285337789403,120.72677891909868,-5.599942670533976,302997.6403271765,142006.05484972338,141779.61214248964,0,2010,1451,2
-862.8767133399066,119.93839397870768,-0.46601444952174514,302072.42610036524,144945.45254996105,152475.47884336248,0,2009,1453,2
-790.3267245810868,119.5347498516476,5.5571336694701206,301461.65666989103,147938.83820320334,163950.95167541245,0,2010,1451,2
-719.8848897755212,119.48622700601459,12.296555635046595,301154.07712483814,150962.37310729382,176142.44038494115,0,2006,1458,2
-652.1968717235484,119.83506406469971,19.582268768838087,301127.7791025529,154001.6011659217,188982.651616258,0,2008,1456,2
-587.8409386149573,120.69133407304787,27.270474570119436,301354.6959174454,157049.12419763775,202402.3880089114,0,2007,1453,2
-527.3267375056981,122.19679238149335,35.256284480164574,301804.1361110867,160101.17692849028,216332.6581187712,0,2010,1452,2
-471.10203644136953,124.48040597840605,43.46821536294926,302444.874974522,163154.43480753747,230706.29506166797,0,2009,1451,2
-419.56257281918613,127.62572684496617,51.85052885554395,303245.7232142181,166204.22883624505,245458.27943062404,0,2010,1455,2
-373.05733376411774,131.6508081205179,60.34585528213113,304175.7254560547,169244.26833220714,260525.60902275494,0,2010,1453,2
-331.890187241158,136.49972360329355,68.88371185753894,305204.73817957845,172267.24781428234,275846.9247324501,0,2009,1451,2
-296.3199577326066,142.0501590135617,77.37524999563696,306304.63076852594,175265.84146839596,291361.74613985704,0,2010,1452,2
-266.5585734745166,148.13566712292624,85.71411350860777,307451.2680327835,178233.8783982004,307009.91617269703,0,2005,1454,2
-242.76901053288873,154.57085644394397,93.78536780684159,308626.6038450703,181167.277919407,322731.1621890698,0,2010,1452,2
-225.0632295180551,161.16942557390385,101.48564118455876,309819.8803715863,184064.41646850866,338464.73182004184,0,2010,1452,2
-213.4990126458453,167.75455886389744,108.75110025766989,311027.6618442243,186926.04012421644,354149.7865464109,0,2008,1455,2
-208.07844869070433,174.1629136822658,115.57764223701851,312252.90130018845,189754.70485174112,369726.13210885954,0,2003,1458,2
-208.75049011979118,180.2434014212452,122.01990139017802,313503.1976367951,192553.56890163798,385134.89953318477,0,2006,1455,2
-215.41545309296617,185.85427808449498,128.17332786464837,314788.5808347443,195324.73981745914,400319.7349931255,0,2010,1451,2
-227.92820425968137,190.8610404083743,134.15397488567015,316119.5766783597,198067.85027683285,415227.8345820914,0,2008,1452,2
-246.09976084114732,195.13577392318356,140.08406202720434,317505.9104909874,200779.51752507655,429810.2230527093,0,2009,1451,2
-269.6989012374503,198.55772747427093,146.0818989560771,318955.528694906,203453.7565807021,444022.0494665693,0,2010,1452,2
-298.4545761603001,201.01448555877082,152.25582325206477,320473.8259053592,206082.83502251652,457822.7706226777,0,2010,1452,2
-332.0615391271094,202.40369728017635,158.70410894407195,322063.13871281716,208658.21489954033,471175.7579252291,0,2009,1451,2
-370.1905657351147,202.63534565261776,165.51853332408788,323722.2855124798,211171.53485681058,484047.773796254,0,2009,1453,2
-412.49783717747084,201.63324019692834,172.7857704828103,325445.95443914604,213615.22751879314,496408.30722105317,0,2007,1453,2
-458.62980904850514,199.33398481562372,180.5824818327453,327223.97205662733,215982.42006691112,508228.81964811037,0,2008,1451,2
-508.2262624889966,195.6832633412194,188.9653975426395,329040.6076915832,218266.42018949334,519482.51912753156,0,2008,1454,2
-560.9220682442551,190.63143806763267,197.96229074783972,330874.1195016996,220460.25305850408,530144.4120818841,0,2010,1451,2
-616.3482493248094,184.13016018067566,207.56833151225118,332696.695206595,222556.57065407938,540191.2713070986,0,2008,1451,2
-674.1351112297714,176.12996292081507,217.7471322269223,334474.7260781311,224548.02209243612,549601.8261205624,0,2008,1453,2
-733.915510324439,166.57859373192645,228.43283061244048,336169.1562795871,226427.77626560966,558356.889346037,0,2009,1455,2
-795.3272816067474,155.41882436901972,239.5310625276296,337735.9634318963,228189.98088711285,566439.1386926193,0,2009,1452,2
-858.0176888195901,142.5841974555029,250.91994974068407,339127.11000532925,229830.25495686138,573832.9713351934,0,2008,1452,2
-921.6470957202356,127.99440901389835,262.4530371652674,340291.8186067142,231346.07996424,580524.3449905775,0,2008,1454,2
-985.8877300309938,111.55243013125089,273.9663607216664,341177.997399299,232736.82481223522,586500.2578982539,0,2007,1452,2
-1050.4185500697326,93.14271589933104,285.28986385979914,341734.0025435834,234003.4296188227,591748.0385131048,0,2010,1455,2
-1114.9172888719118,72.63054937963035,296.25836379710046,341910.5213909079,235147.87790015482,596254.6307365401,0,2007,1452,2
-1179.0528111333156,49.8640715745141,306.7189165255726,341662.54750282393,236172.40518153633,600006.018271888,0,2006,1455,2
-1242.4830337380479,24.679387502565444,316.5356058473621,340951.7769356612,237078.3780845173,602986.9256929114,0,2007,1452,2
-1304.8569682488348,-3.0918488477997332,325.591427226953,339748.86231446185,237865.13735757823,605180.580697319,0,2008,1452,2
-1365.8164468665548,-33.61257736567653,333.7869606866496,338034.84175008396,238529.1917375918,606568.3444899675,0,2007,1457,2
-1424.996468927694,-67.02903764212712,341.0372636247926,335801.98702799855,239063.81837369566,607129.4001464222,0,2006,1453,3
-1482.024043810756,-103.46053429521582,347.2680360135081,333054.43491915683,239458.98341217134,606840.7363381136,0,2008,1455,3
-1536.5197050970396,-142.9914899814549,352.41212079707185,329808.6987598201,239701.5605085764,605677.5445386542,0,2004,1460,3
-1588.1054974098413,-185.66396748069883,356.40810952772466,326094.12047287513,239775.79014040512,603613.9828287527,0,2010,1452,3
-1636.41325106269,-231.4688228881732,359.2013890703682,321953.183083469,239663.81734936134,600624.0116411048,0,1988,1467,3
