AccX (g),AccY (g),AccZ (g),GyroX (deg/s),GyroY (deg/s),GyroZ (deg/s),Heel ADC0,MidFoot ADC1,Toe ADC2,LABEL
-964.5963639597293,40.84442021470582,157.36764477078148,259358.04537750818,130388.36076008122,238977.45193918012,6,1986,1521,4
-964.9084690961831,41.05692292993473,161.3253060911394,263320.8983189533,130739.41922412763,238118.3474132927,6,1992,1518,4
-965.236778117401,41.066926946552584,165.4936920563778,267382.02741086564,131110.06653772944,237233.39375167157,7,1995,1509,4
-965.5739738769424,40.885752361648095,169.87737927266457,271523.6382548774,131495.17540650358,236325.129517047,0,1992,1513,4
-965.912580460119,40.5135201725961,174.45292962198874,275728.39279779774,131889.1835431006,235396.31542484477,5,1987,1512,4
-966.2460564602346,39.93951236853382,179.17905193487834,279980.3767832703,132286.81857731743,234449.71744271688,14,1993,1504,4
-966.5702760866391,39.146001276779266,184.01278896270455,284265.96776610974,132683.94166265722,233487.77033747578,10,1991,1510,4
-966.8850245004144,38.115081491463464,188.92233881795218,288574.07307618216,133077.85983007125,232512.35189808815,1,1995,1507,4
-967.1951466419549,36.83722226119919,193.8938144593932,292895.9646085415,133466.93014413575,231524.71539808894,6,1997,1496,4
-967.5105060683255,35.31750026562884,198.93126455362685,297224.871915812,133849.79897110435,230525.5562201508,10,2009,1492,4
-967.8442842086415,33.57689022782969,204.05038708156917,301555.3104413712,134224.69984689704,229515.17859085795,0,2001,1499,4
-968.2102607012231,31.650325721895506,209.26960363874238,305882.2818154834,134589.0462226233,228493.68121166527,0,2000,1499,4
-968.6201432709572,29.583587547535757,214.60315083192265,310200.47516366636,134939.4294066519,227461.11393481493,0,1987,1492,4
-969.0818012737424,27.429628341833148,220.05867561932197,314503.52402590355,135272.00986076574,226417.6016710482,0,1990,1483,4
-969.5991235080825,25.245528880051822,225.6389971178244,318783.3559552735,135583.08139245803,225363.4399497743,0,1992,1486,4
-970.1737797584886,23.090864904684786,231.34626591613713,323029.73251139343,135869.50797668536,224299.14925620676,0,1988,1488,4
-970.8080282565779,21.02666918810799,237.1862841516743,327230.0688198782,136128.87372057227,223225.47519768355,0,1988,1487,4
-971.5068012670398,19.114413908927016,243.170589086381,331369.38660477207,136359.353641726,222143.38471083742,0,1992,1482,4
-972.2779301638861,17.414973603132825,249.3153348240032,335430.3494836495,136559.39572791572,221054.08085531555,5,1992,1477,4
-973.1308703757259,15.987381597936263,255.6379604836142,339393.51093683334,136727.35149534952,219958.99174004872,11,1996,1475,4
-974.0749822623693,14.887567832992076,262.15295368953775,343237.5764613421,136861.21097893853,218859.7609972829,3,1993,1473,4
-975.11798190114,14.167105721510406,268.8672549786489,346939.5671348869,136958.53370410725,217758.27414604067,12,2000,1468,4
-976.2646001059883,13.87162152081583,275.7759297209912,350475.13630488643,137016.55593006304,216656.68180059126,0,1997,1471,4
-977.515648980993,14.039163245577756,282.85973979125663,353818.97590787424,137032.3987425509,215557.42120518902,12,1997,1464,4
-978.8678565542168,14.69893453419844,290.0860889202597,356945.22529817466,137003.34337441996,214463.22652869724,16,1994,1466,4
-980.3143890113814,15.87026496770479,297.4127700884855,359828.076792032,136927.15679031485,213377.07937539998,0,1989,1472,4
-981.8455658411285,17.562011506794622,304.7920047145199,362442.4151757927,136802.34905575946,212302.15139680082,0,1997,1467,4
-983.4494613692705,19.772962628229653,312.17340334604006,364764.3403399167,136628.23711337283,211241.7777308049,0,1996,1463,4
-985.1124080785345,22.49310934632347,319.5062326170669,366771.7763083137,136404.84035309555,210199.3982868891,0,1994,1463,4
-986.819283727911,25.704899675661547,326.74051707625017,368445.0473349654,136132.72975829046,209178.47857927188,0,1989,1465,4
-988.5533977450582,29.38421079695782,333.82639759034123,369767.2404533933,135812.91311938397,208182.4447224292,0,1997,1463,4
-990.2959801430837,33.50137726609411,340.71239969057626,370724.52054826764,135446.77467962596,207214.60629709874,0,1995,1460,4
-992.0255577265651,38.02207951254742,347.3438008168185,371306.43081634486,135036.09802741042,206278.11230666252,0,2001,1457,4
-993.7178910432319,42.907951625122905,353.6630488305211,371506.1346921711,134583.213664674,205375.9749427332,0,2006,1455,4
-995.3468515342927,48.117116521823796,359.6134884997272,371320.69818969554,134091.25144182213,204511.09769606453,0,2009,1457,4
-996.8856817114453,53.604670051830816,365.14461397531244,370751.36557805986,133564.37268303998,203686.29329524047,0,2006,1456,4
-998.3079744531697,59.32345763229818,370.21632861609004,369803.65962671867,133007.7821426303,202904.31074295126,4,2005,1455,4
-999.5881896234723,65.22558135141344,374.8012318585094,368487.2820319577,132427.42777183736,202167.85236989052,4,2008,1453,4
-1000.7014458664562,71.26490183700174,378.8842721055273,366815.93139777984,131829.5582372744,201479.59978087049,0,2006,1459,4
-1001.6224859706077,77.40035745901476,382.4598250905065,364807.04726182483,131220.34661071358,200842.2752611543,0,2005,1455,4
-1002.3245039996524,83.59853068225486,385.5279148380277,362481.40158064954,130605.63750188652,200258.71463411403,0,2004,1455,4
-1002.7787366802672,89.83438571182359,388.0914932267483,359862.6707748772,129990.85948665088,199731.93811402936,0,2004,1473,4
-1002.9549988681653,96.09114840180504,390.155260386287,356977.1322227722,129381.10066426752,199265.22319781888,0,2003,1456,4
-1002.8225935387958,102.35996300964273,391.72516862970394,353853.43332084885,128781.22948848037,198862.16674506842,0,2002,1455,4
-1002.3511742745637,108.63855295777775,392.8073505539918,350522.3031121241,128195.93981864926,198526.7144927083,0,2001,1457,4
-1001.5116738305012,114.9285261835359,393.4059346531043,347016.1324357153,127629.69338597351,198263.1530404875,6,2002,1457,4
-1000.2773988907662,121.23230313241784,393.52080496709294,343368.6257338284,127086.65143672537,198076.0878011948,6,2002,1457,4
-998.6254711608409,127.55084546904274,393.1471649691407,339614.6190515688,126570.6885166079,197970.40150164653,1,2001,1459,4
-996.5388479442519,133.8823860412803,392.27773577975205,335789.84502704965,126085.48001988312,197951.1575790935,2,2001,1458,4
-994.008444942128,140.22179856827742,390.906652383306,331930.6847729354,125634.60389336449,198023.46083829334,0,2002,1458,4
-991.0347087170179,146.560754759613,389.03374702533046,328073.91961192526,125221.56337772912,198192.2886107035,0,2002,1458,4
-987.6286004362508,152.88892430706065,386.66825669648665,324256.25795746566,124849.65479362269,198462.28170152364,0,2002,1459,4
-983.8120308559763,159.1953224497191,383.83052189220246,320513.8235218192,124521.73235584144,198837.5488753979,0,2002,1457,4
-979.6173693047263,165.46842828052436,380.55045623566843,316881.773207996,124239.95320666526,199321.54694884867,0,2002,1460,4
-975.0858747646369,171.69464773814934,376.8634119781776,313393.8188548286,124005.5376813308,199917.0115115186,1,2004,1457,4
-970.2658455278586,177.8559003848428,372.8060057896061,310081.754302388,123818.63879047312,200625.8852922429,0,2004,1458,4
-965.2109607344985,183.92780575255753,368.4135979112765,306975.14788272255,123678.40809172802,201449.2389060821,0,2004,1459,4
-959.9783752280704,189.87919624305735,363.71870756669176,304101.030955526,123583.19865811088,202387.20467318856,3,2002,1461,4
-954.6269312812323,195.67235942421024,358.7497280187735,301483.6699136755,123530.76213850088,203438.91905685898,0,2003,1457,4
-949.2159972487893,201.2637084627614,353.53004154472455,299144.56727751193,123518.37062750524,204602.48373913087,1,2001,1462,4
-943.8043450109902,206.60527693380774,348.0773676929275,297102.52127881965,123542.90386829241,205874.96568445832,2,2001,1458,4
-938.448959899076,211.64675266068411,342.40358085612525,295373.66899840446,123600.94524315308,207252.38813575194,2,2002,1457,4
-933.2042258127134,216.3377661193425,336.5153682316365,293971.5188524423,123688.9071168994,208729.70847302594,2,2004,1457,4
-928.1213930861412,220.6305510379715,330.415431032253,292906.8837033488,123803.19164662667,210300.85569246998,3,2004,1456,4
-923.2483844480049,224.48211751610486,324.1038123779269,292187.7641873941,123940.33442019796,211958.79555537773,1,2005,1455,4
-918.6298477936388,227.85526490541878,317.5791503367012,291819.2783393397,124097.09327031927,213695.5993982005,2,2004,1455,4
-914.3067091931499,230.7189254978647,310.8396283859449,291803.60793538025,124270.51064170856,215502.57665948762,3,2005,1455,4
-910.3152969439781,233.04799421384504,303.88355654691014,292139.9665818992,124457.95674557541,217370.40276503982,1,2005,1455,4
-906.6868714005494,234.82247692734472,296.7095701320865,292824.66922299465,124657.1409838827,219289.20278513245,0,2007,1455,4
-903.4475394625474,236.02644484246198,289.31636612176095,293851.3172845262,124866.11070682497,221248.6783841416,0,2005,1456,4
-900.6180650892792,236.6473883608571,281.70236572442326,295211.0079047974,125083.25795569687,223238.2178191284,0,2006,1456,4
-898.2133560702609,236.67584004741272,273.8655577965285,296892.5601392018,125307.34796929054,225246.94873009514,0,2008,1452,4
-896.241622659391,236.1049079546913,265.8031754046146,298882.8342813931,125537.57260654133,227263.84375770335,0,2010,1454,4
-894.7037270775139,234.9298284831364,257.5113398690239,301167.044288404,125773.6012992391,229277.82980472114,0,2010,1453,4
-893.5932309149558,233.14779466141596,248.98507454149726,303728.9444931586,126015.62946147729,231277.83958098455,6,2009,1452,4
-892.8969394335355,230.75803411088734,240.218782857648,306550.9356941937,126264.45533292854,233252.8996222455,0,2010,1454,4
-892.5956897285787,227.76192308896253,231.207405877226,309614.20657180523,126521.55570006858,235192.22035554482,4,2009,1452,4
-892.665425654965,224.1630296655419,221.948166675296,312898.978618663,126789.10506653009,237085.20105730908,0,2008,1455,4
-893.0783493086196,219.96723299430784,212.44236698582364,316384.70113900484,127069.93865035192,238921.39559067492,0,2009,1454,4
-893.8039131200246,215.18307855042028,202.69692859026614,320050.1321225216,127367.47415518976,240690.527170137,0,2006,1455,4
-894.8097387320504,209.8223814246473,192.72575933155156,323873.4696465461,127685.59803541229,242382.59654634807,0,2008,1454,4
-896.0623620078695,203.90107577889393,182.55125003431257,327832.45048108225,128028.53900327963,243987.9970156321,0,2007,1453,4
-897.5276369885739,197.44017396755834,172.20593935416971,331904.33547922736,128400.73218969312,245497.58968041607,0,2008,1456,4
-899.1709531863935,190.4665774486594,161.73400689712574,336065.9418303193,128806.65243732592,246902.82371750733,0,2008,1458,4
-900.9574341528355,183.01373489708146,151.1923331191732,340293.641082654,129250.62657083473,248195.8611876422,0,2008,1458,4
-902.8523121373338,175.1221416872109,140.65058093411366,344563.23445776914,129736.64081483043,249369.65924685198,0,2006,1455,4
-904.8216067531943,166.8394994908551,130.18995215259915,348849.86211614986,130268.1407933997,250418.09084366573,0,2007,1454,4
-906.832753566012,158.2205942362302,119.90159463021908,353127.8925156631,130847.85020078182,251336.0735090428,0,2007,1455,4
-908.8548283564468,149.3269223856274,109.88505791080678,357370.7374516125,131477.64328937253,252119.64708022476,0,2008,1456,4
-910.8585480445519,140.22593335029777,100.24597476371697,361550.7561926272,132158.46289416868,252766.05251170282,0,2008,1456,4
-912.8164699083225,130.98959381623354,91.09337593629358,365639.19491088117,132890.25173900148,253273.79856975444,0,2008,1457,4
-914.703542608717,121.69216597539088,82.53739225095863,369606.0422286314,133671.89753949334,253642.66407406642,0,2008,1455,4
-916.4978006421969,112.40822870100828,74.68710674072474,373419.89748733205,134501.21135936544,253873.6620173078,0,2009,1454,4
-918.1811941249745,103.21151501695778,67.648158616641,377048.0608400089,135374.91482787963,253968.986217053,0,2010,1453,4
-919.7406120746023,94.17380031756193,61.51986176028462,380456.9587279061,136288.60597799407,253931.93114520577,0,2010,1452,4
-921.1685808376445,85.36398631206171,56.39249817869156,383612.6373524553,137236.71684799058,253766.79618755818,0,2010,1452,4
-922.4631450638253,76.84804817419598,52.34515367283942,386481.1597619636,138212.51350135892,253478.77363806855,0,2009,1453,4
-923.6271202635986,68.68960255843405,49.44328675767832,389029.10518274165,139208.17645949687,253073.81249055773,0,2010,1451,4
-924.6672529433225,60.95069405617733,47.736322063843055,391224.0618489172,140214.91937830398,252558.5035584855,0,2010,1453,4
-925.5937697506788,53.692063462479645,47.2562585113864,393034.95972129283,141223.16468640155,251940.00622792036,0,2009,1455,4
-926.4205150442713,46.97210806653607,48.01724165578627,394432.4292458174,142222.8581716708,251225.96881155396,0,2009,1453,4
-927.1654738714036,40.8452439853826,50.01582565027009,395389.1834106121,143203.82008555692,250424.43720352207,0,2008,1453,4
-927.8513158732644,35.36082290988495,53.232082415038704,395880.35786291433,144156.03274878816,249543.73660497955,0,2008,1453,4
-928.5057152340192,30.562738984409624,57.63145153363309,395883.94092315773,145069.92349036888,248592.2815023099,0,2009,1446,4
-929.1612945225419,26.489608192180736,63.166545091312344,395381.2416520716,145936.5890358902,247578.38383789835,0,2008,1454,4
-929.8552400545703,23.175055654063012,69.77860675512585,394357.2586891138,146747.8909726109,246510.10284099914,0,2010,1451,4
-930.628943288117,20.64723235866936,77.39896977437759,392800.98262255825,147496.50710959564,245395.07175335535,0,2010,1454,4
-931.527928072949,18.92750062358317,85.95001761029397,390705.63924898097,148175.97562590917,244240.34283584123,0,2011,1452,4
-932.601854085221,18.028951767716393,95.34503259332502,388068.7675629384,148780.72399855955,243052.29164973946,0,2010,1452,4
-933.9042118490609,17.955528045974923,105.48724377201859,384892.1130887405,149306.12390527714,241836.51020746547,0,2011,1452,4
-935.4915648669346,18.70256276646668,116.2687084497982,381181.5306476616,149748.57092030684,240597.71622061115,0,2011,1454,4
-937.4222337707139,20.259259795899485,127.57023973462742,376946.9660257006,150105.59563553156,239339.72906639898,0,2010,1452,4
-939.7543971311915,22.612617854060893,139.26320647339145,372202.38195143366,150376.03603109473,238065.46648299007,0,2011,1452,4
-942.544132132577,25.750565796728928,151.21187878220255,366965.7197188345,150560.19565938236,236776.97685252197,0,2011,1451,4
-945.8438112563134,29.66158031005157,163.27494079881563,361258.92747233505,150659.8939082888,235475.53505228096,0,2009,1455,4
-949.7005753866497,34.33030669718674,175.30625311775557,355107.8756120971,150678.42025506936,234161.75130262357,0,2010,1452,4
-954.1545911483822,39.731394612593775,187.1548147717973,348542.34881128644,150620.44791119295,232835.67581864924,0,2011,1452,4
-959.2368282056445,45.82350725095286,198.66445139980823,341596.2695659806,150491.93730189506,231496.87731566248,0,2010,1454,4
-964.9662142823538,52.54400539547083,209.674386518601,334307.9303999717,150300.04031793267,230144.44594981876,0,2010,1452,4
-971.3466569085185,59.80540012715359,220.02032766839457,326720.28204059455,150053.01977648374,228776.9819529703,0,2011,1455,4
-978.3639415444737,67.49503382946699,229.53582061854658,318881.26843557437,149760.16523123506,227392.65400299258,0,2010,1454,4
-985.9818897586727,75.47757986627299,238.05491073334463,310843.9112116425,149431.67383822944,225989.32012623316,0,2011,1451,4
-994.1380486628672,83.59794829276593,245.41571847077077,302666.29678308475,149078.52711290054,224564.7190351092,0,2010,1452,4
-1002.7392812750145,91.68354189694013,251.46481691727035,294411.4828545872,148712.35441906992,223116.7665305436,0,2010,1451,4
-1011.6571243982606,99.54752881060617,256.0640922120337,286146.949704146,148345.21525413197,221643.94217362918,0,2010,1452,4
-1020.7241125525934,106.99204376933208,259.1007615841612,277943.8585512708,147989.35217536657,220145.70221145733,0,2010,1453,4
-1029.7342820664728,113.8060295192653,260.5022375489466,269875.95668651763,147656.97668597498,218622.82603641442,34,2010,1452,4
-1038.4499126399985,119.75628837231298,260.2552450096002,262017.27834223697,147360.01707191276,217077.62738023011,186,2009,1453,4
-1046.612903126582,124.5807462349978,258.419967471179,254439.2397933117,147109.76096656304,215514.0466803425,335,2010,1453,4
-1053.959104261694,127.99578745425895,255.1321819319948,247207.98345474008,146916.15847124776,213937.6433105975,578,2009,1452,4
-1060.2359833856196,129.72095557698194,250.59445371064106,240381.78374798762,146786.5110016393,212355.48707405356,773,2010,1452,4
-1065.2267817213624,129.52496046868802,245.0507537552288,234009.2468180828,146723.8026874685,210776.04644371336,894,2011,1453,4
-1068.7822465409436,127.29032929866536,238.73879490139302,228129.3683717434,146725.15954486324,209209.0790905774,965,2009,1451,4
-1070.8480664805293,123.06478832741293,231.84013438679688,222773.21759087715,146780.88181391763,207665.38908992423,955,2009,1454,4
-1071.4730987168907,117.06543136656235,224.46122453178256,217966.2386445445,146874.90599592886,206156.53938771255,952,2009,1452,4
-1070.7947841642012,109.62615920040302,216.65907001868058,213729.60352223474,146987.77441515765,204694.6465925768,973,2008,1452,4
-1069.00891742508,101.10670319849365,208.4933798662901,210079.28552374447,147101.69679100806,203292.135219127,930,2008,1453,4
-1066.3401849995932,91.81435130514888,200.06684145299914,207023.54174015514,147204.82981508333,201961.3288357963,944,2008,1451,4
-1063.0233797938927,81.97881795447732,191.53017866539477,204560.95299419493,147292.15928582527,200713.58993346125,870,2010,1452,4
-1059.2890072927337,71.77189460474148,183.06222637017672,202680.36912940638,147363.3702560881,199557.75602483723,823,2008,1452,4
-1055.3482411515795,61.34103860338075,174.84821816721038,201362.6048651383,147420.0090050848,198498.52427099657,824,2009,1455,4
-1051.3792956521197,50.835922121754656,167.06563599810735,200582.90093058578,147463.49355626784,197535.7839565606,868,2010,1455,4
-1047.5178085620505,40.422203706217,159.87184026205395,200313.04616977237,147493.95693299305,196665.0929010419,895,2011,1455,4
-1043.854664588003,30.282488911103062,153.39072610874908,200522.31574206188,147509.62636126915,195878.8357938463,930,2011,1452,4
-1040.4422748172026,20.60416329196589,147.70135901754153,201177.02523496767,147506.83638628884,195167.70495898562,983,2011,1455,4
-1037.3046733610481,11.557714703787305,142.83037163841212,202239.33378078009,147480.70675074428,194522.35085300088,1043,2013,1455,4
-1034.4458899039507,3.276685552562859,138.75074308776357,203666.2769035275,147426.2137426231,193934.78827414152,1131,2011,1453,4
-1031.8565653379112,-4.1516357885880675,135.3901279347388,205409.77853788817,147339.36822146233,193399.15907564713,1224,2012,1452,4
-1029.521539937186,-10.686311393216476,132.6474010356155,207417.71867988526,147218.32110557065,192911.900577231,1198,2016,1453,4
-1027.4271300763376,-16.328328908407578,130.4099483937891,209635.49337752,147063.97208721988,192471.48466599523,1327,2012,1451,4
-1025.5653649335006,-21.11328451072101,128.5656325952967,212007.9215731624,146879.54939676885,192077.75110961442,1404,2015,1454,4
-1023.9348241967951,-25.10283429873142,127.00965647083808,214481.71290757673,146669.19186142719,191730.9565961577,1418,2018,1452,4
-1022.5382658148603,-28.3785353937354,125.64764684492634,217007.75222950752,146436.32598838597,191431.00957400433,1491,2017,1455,4
-1021.3765891787974,-31.039670687514384,124.39613180415124,219542.41497642416,146182.59712033087,191177.31378607007,1540,2018,1455,4
-1020.4404591421776,-33.202416073772724,123.18250669228145,222048.1564518533,145907.4716386253,190969.13855038016,1623,2020,1452,4
-1019.7042236178653,-34.99698214061085,121.94565803026795,224493.6134055389,145608.40964623127,190806.13915410754,1709,2028,1453,4
-1019.1260632930964,-36.56017553020868,120.63818457549938,226853.25549350661,145281.60217507635,190688.75240469223,1665,2030,1452,4
-1018.6537898965764,-38.02340642105752,119.23112532745431,229106.86820288605,144923.1028277016,190618.40810357366,1672,2029,1454,4
-1018.2323788511617,-39.50126825565726,117.71949054168509,231239.06977414028,144529.86111572248,190597.5591644487,1639,2039,1454,4
-1017.8103416220143,-41.085629507866535,116.12458514841462,233238.82663472628,144100.2812544411,190629.50477780373,1622,2032,1452,4
-1017.3447078910345,-42.84513325267719,114.49090309021204,235098.89827847443,143634.37213678792,190718.0571881143,1556,2028,1452,4
-1016.8040256205207,-44.82794293275734,112.8790743473404,236815.24590225593,143133.67086735938,190867.22101746823,1398,2028,1451,4
-1016.1681830244909,-47.066487685288266,111.35639542460957,238386.4999384292,142600.99659856284,191080.99771773606,1341,2045,1452,4
-1015.4257017980578,-49.583125413757855,109.98542666023422,239813.54738066968,142040.0849702938,191363.28033727195,1157,2041,1451,4
-1014.5707686702982,-52.39444019691886,108.8143246933122,241099.27878706675,141455.2763834388,191717.77286766967,1075,2047,1455,4
-1013.6016948673554,-55.5126693988049,107.87295410189122,242248.5580261983,140851.35735755673,192147.86446724445,1099,2041,1451,4
-1012.5207781211955,-58.94518050407479,107.17376425931647,243268.38582257007,140233.44863438688,192656.40602570315,902,2064,1456,4
-1011.3346438711325,-62.692918842886336,106.71414500930452,244168.03257988396,139606.87179585596,193245.4328944147,859,2069,1455,4
-1010.0539807514336,-66.74755704579584,106.47878562874737,244958.92438201464,138976.98117166088,193915.9025211878,845,2068,1459,4
-1008.6921602536395,-71.08793537631533,106.44223819543213,245654.28227324446,138348.9252412359,194667.46907248904,766,2074,1457,4
-1007.2634077910728,-75.67799063679804,106.57168836566986,246268.62438101138,137727.4268003769,195498.32885271948,689,2072,1458,4
-1005.7813391275956,-80.46810618491759,106.82987177907071,246817.09839596666,137116.71433902517,196405.21389654145,617,2077,1463,4
-1004.2582073522477,-85.39950240673234,107.17841055454151,247314.5792937859,136520.61160482588,197383.55613014664,582,2083,1463,4
-1002.7049646630073,-90.40905387694487,107.58077425917708,247774.77507697538,135942.7132296473,198427.70006174073,517,2069,1468,4
-1001.1318418060491,-95.4332333174427,108.0037888754177,248209.62417721373,135386.53102537972,199531.09985409785,438,2069,1464,4
-999.5492285643876,-100.41202547078754,108.4178486908208,248628.96459101376,134855.51947725326,200686.57809013038,461,2047,1478,4
-997.9688128480466,-105.29203422133763,108.79657449960243,249040.38393716203,134353.00425895603,201886.59204823,298,2040,1483,4
-996.4044539303757,-110.02728271216876,109.11639305242936,249449.24597514785,133882.0510172673,203123.40942089987,315,2006,1519,4
-994.8721714138652,-114.57866831360585,109.35585602652434,249858.8752891971,133445.2674358365,204389.23022876232,285,2019,1499,4
-993.3894209939845,-118.91372899793865,109.49473041313227,250270.8146421015,133044.60797204883,205676.24510014366,308,2003,1526,4
-991.9743765858934,-123.00703743084964,109.5136548695231,250685.12054973244,132681.2631554428,206976.63486064464,235,2007,1515,4
-990.645536449114,-126.84070758273562,109.39437979359052,251100.71943251492,132355.61712329692,208282.60588005322,170,1992,1523,4
-989.4213950992591,-130.40401519846694,109.1200061976689,251515.74205492152,132067.2467028437,209586.43895118896,137,2007,1523,4
-988.3199227193966,-133.69142646611368,108.67588324675717,251927.81632589173,131814.95632184038,210880.51282783132,108,1998,1542,4
-987.3582899489364,-136.69998789703826,108.05206493938185,252334.4137323584,131596.84436301366,212157.36918887837,109,2011,1552,4
-986.5532358518084,-139.4277255302729,107.2464318515461,252733.17066373443,131410.40238945142,213409.79278170515,122,2002,1553,4
-985.9211650045952,-141.87352282364432,106.26685986656358,253122.05599985746,131252.62748962682,214630.8582247239,61,2001,1557,4
-985.4771534784163,-144.03819653250977,105.1319273919504,253499.43464935536,131120.11030070798,215814.0042889566,46,1977,1566,4
-985.2333690277244,-145.92611471829892,103.87044043566608,253864.0947516742,131009.07943690692,216953.11556699543,11,1948,1580,4
-985.1974914707737,-147.5462587732632,102.51978500048939,254215.25320120068,130915.43118866607,218042.55880081945,8,1977,1574,4
-985.3715190587196,-148.91216614199607,101.12306064064619,254552.56666110485,130834.79145702046,219077.22203032466,17,1972,1583,4
-985.7516019105404,-150.04097940756364,99.72595137120969,254876.1500809214,130762.61008597788,220052.55238327995,14,1979,1580,4
-986.3290493648074,-150.95208089016148,98.37440941153329,255186.58758136246,130694.25596162374,220964.5481608581,2,1971,1583,4
-987.0919095328418,-151.6653092326224,97.11315561273723,255484.93827772606,130625.10001323449,221809.7347634798,6,1981,1609,4
-988.0267211241397,-152.19867368782482,95.98462542764582,255772.7233279661,130550.58589462157,222585.19064713232,4,2036,1591,4
-989.1204265291341,-152.56714181453296,95.02796272284691,256051.85861048553,130466.2787670295,223288.6563955518,0,1937,1630,4
-990.3619133424897,-152.78379543005767,94.27766421694895,256324.52379703752,130367.87372923222,223918.6204902534,0,2000,1610,4
-991.742397103185,-152.86157096804345,93.76154500849321,256593.01026400246,130251.16136313982,224474.21097501513,2,1979,1607,4
-993.2546743654079,-152.81355975813614,93.4982456077809,256859.61628291872,130111.99513760992,224954.90385927752,0,1988,1655,4
-994.8919575931521,-152.65205284776604,93.49574739374076,257126.61458058393,129946.32599568879,225360.22420124276,0,2025,1620,4
-996.646949527998,-152.38698364594904,93.75243221105357,257396.2310815232,129750.34273540114,225689.5609431505,0,1996,1640,4
-998.5113995559758,-152.02400689606216,94.26040314942297,257670.5652024569,129520.70099016237,225942.09353186155,0,1967,1668,4
-1000.4763311074377,-151.56316255977248,95.00923242454633,257951.45264957813,129254.7443413087,226116.79459869806,0,2006,1669,4
-1002.5333166795599,-150.99940873269898,95.98908004767871,258240.28438055652,128950.61351254027,226212.4891543995,0,1975,1672,4
-1004.6762533850035,-150.32472900375808,97.19315840862983,258537.77552055405,128607.2350867754,226227.92059136604,0,2030,1651,4
-1006.9022617413342,-149.53055669851022,98.61900912064762,258843.75070855027,128224.24757674863,226161.7480857029,0,1967,1664,4
-1009.2115616509612,-148.60990164437902,100.26829892191822,259157.0504331184,127801.90140716273,226012.46234806068,0,1903,1733,4
-1011.6072633184317,-147.55857863272263,102.14597858721916,259475.55511194986,127340.95655204146,225778.2720428656,0,1887,1747,4
-1014.0954479270779,-146.37486957434797,104.25987557339192,259796.26414650408,126842.61035610698,225456.99729038635,0,1952,1734,4
-1016.6852428777657,-145.0581156142661,106.62097374208139,260115.38544249703,126308.46123541331,225045.98234731663,0,1893,1763,4
-1019.388568981926,-143.60763201226135,109.24377602094638,260428.38146239266,125740.50048094572,224542.06328484108,0,1911,1786,4
-1022.2198388159047,-142.02261541573952,112.14634599030319,260729.96603063197,125141.09878362571,223941.61487861857,0,1907,1773,4
-1025.1962329225003,-140.30253496092098,115.3502796445159,261014.1041375493,124512.9425559753,223240.6471814343,0,1781,1844,4
-1028.3384436438994,-138.44751199941783,118.88067039888519,261274.0208142292,123858.94532017359,222434.9200133541,0,1770,1887,4
-1031.6716820155702,-136.45888933397376,122.76523270224806,261502.19113199878,123182.13124039238,221520.07528802953,0,1770,1913,4
-1035.2275857753757,-134.34015052499808,127.03160169526534,261690.320275745,122485.43373322151,220491.80212597118,0,1718,1955,4
-1039.0467952978988,-132.09970165603198,131.70154485326515,261829.3705547454,121771.42144880623,219346.05346243267,0,1660,1984,4
-1043.1787900062104,-129.75596968505468,136.78063447686665,261909.82968896188,121041.88543892483,218079.3072854068,0,1578,2038,4
-1047.6743980886947,-127.3371172901071,142.24708577884567,261922.41580592256,120297.22395144888,216688.8131127957,0,1585,2074,4
-1052.5749190025708,-124.87306766296665,148.0472842780502,261859.03930954513,119536.06026595883,215172.7253567477,10,1569,2093,4
-1057.9095763888292,-122.39219062664678,154.1000291403928,261713.62827035322,118755.7596019689,213530.00658203344,13,1501,2154,4
-1063.701988968996,-119.92402292253941,160.3058621285485,261482.5441920507,117953.71861432875,211760.14020884957,0,1461,2180,4
-1069.9754378982168,-117.49792221270678,166.5566924839917,261164.58638497355,117128.53201842803,209862.91083434667,2,1436,2235,4
-1076.753845853476,-115.13977720857777,172.7437031321866,260760.93642118076,116280.46466810015,207838.33192182358,3,1355,2287,4
-1084.0616489623405,-112.87201584396719,178.7647787688274,260275.2521255577,115411.30452021613,205686.59180355383,2,1352,2305,4
-1091.9234801911468,-110.71408120852608,184.53024670081123,259713.71803469225,114523.9298041954,203408.05339638336,0,1223,2404,4
-1100.363471569009,-108.68093388301811,189.96458213331263,259084.90089979325,113621.85857054284,201003.33315968982,10,1118,2448,4
-1109.404210208195,-106.78090202301313,195.00515453126286,258399.4845898956,112708.84638462379,198473.34699647126,8,1132,2486,4
-1119.0652359645806,-105.01465673859323,199.59982527601937,257669.96738444304,111788.60054748495,195819.34521043306,0,1106,2524,4
-1129.361330421234,-103.37540480760963,203.70403949683308,256910.32057729285,110864.6772611654,193043.003095409,3,990,2547,4
-1140.3009814270717,-101.84958902682872,207.2782803490488,256135.68005157073,109940.48973453946,190146.5317243346,5,959,2589,4
-1151.8852745491074,-100.41778967125884,210.286765735114,255362.1168502154,109019.3672413116,187132.71552475524,2,838,2636,4
-1164.1072365137052,-99.05512033776814,212.69750317146904,254606.40033551183,108104.66160815959,184004.8054243069,19,844,2651,4
-1176.9512556279194,-97.73066711926349,214.4832285141322,253885.75235466362,107199.89125152749,180766.3982043184,5,773,2690,4
-1190.3927413852418,-96.40718136453822,215.6226596377252,253217.56656916163,106308.87584321777,177421.38522328978,23,685,2722,4
-1204.3984818072136,-95.04235802926028,216.10150850353628,252618.9817750536,105435.79593469143,173973.8689918742,7,620,2762,4
-1218.926739858333,-93.591359387837,215.9126536346083,252106.41358368538,104585.17391756097,170428.143337966,12,559,2804,4
-1233.925944722981,-92.00978965458164,215.05527522911427,251695.18799608093,103761.77285647187,166788.80448059627,14,544,2793,4
-1249.3324689702956,-90.25694237640415,213.53335615152983,251399.23633773718,102970.40192823473,163060.83250340985,8,475,2826,4
-1265.0683730712856,-88.2987808760458,211.35419173210443,251230.86489067224,102215.7347676769,159249.67805913326,20,439,2847,4
-1281.0393854988924,-86.11005771368882,208.5270415549331,251200.64618488462,101502.22052917979,155361.40878665933,1,400,2873,4
-1297.1329077363253,-83.67568732960103,205.06170761825493,251317.37873396504,100834.03043194942,151402.78776017146,11,386,2889,4
-1313.215689753405,-80.99136374137831,200.96763946808252,251588.07639361595,100215.03557522353,147381.3550210308,6,365,2919,4
-1329.1314546785316,-78.0632658123388,196.25436754438087,252017.9822064589,99648.86765102514,143305.57444560985,8,345,2930,4
-1344.6993582550515,-74.90721250429478,190.93330283145684,252610.56189433587,99139.05491798809,139184.90891829433,4,302,2938,4
-1359.7151775673963,-71.54744091764509,185.02142268633344,253367.37579167934,98689.23540159078,135029.9121928384,4,301,2937,4
-1373.9566063844265,-68.01464240194,178.5473621140647,254287.75187532665,98303.4509868295,130852.50127497266,0,271,2951,4
-1387.1903708924665,-64.3436533771823,171.55815245399916,255368.28680812434,97986.41925942404,126666.34284399918,0,275,2952,4
-1399.1788163320582,-60.571463908270395,164.12369555972197,256602.16208745915,97743.59878015045,122487.23045891013,2,287,2945,4
-1409.685960250291,-56.73534936061231,156.33731627142572,257978.2507854034,97580.94342421921,118333.41208319571,0,312,2930,4
-1418.481335653272,-52.87169307125347,148.3121371758106,259480.27882934912,97504.4390372292,114225.96736557341,4,333,2910,4
-1425.3401614199183,-49.017098663193,140.17264023217393,261086.4786004531,97519.56224486168,110189.24552060968,0,391,2856,4
-1430.041669846284,-45.2118911895786,132.04204791952776,262769.88244787767,97630.76608631373,106251.19175757469,3,465,2799,4
-1432.36791550226,-41.50368287521414,124.03075983372446,264499.0177689835,97841.22725254289,102443.52605538517,0,484,2778,4
-1432.1046122030766,-37.94869180615525,116.23026418998045,266238.9854341994,98153.16116266495,98801.67405827984,14,569,2703,4
-1429.0445534100081,-34.61121823657048,108.71204606448018,267953.09851011063,98568.72478088799,95364.28635159634,21,643,2642,4
-1422.9928449633262,-31.56271236445442,101.52970576089561,269604.61678245413,99091.05254290166,92172.64762875283,11,747,2551,4
-1413.774569627775,-28.877862912986014,94.72246446634219,271158.2593711963,99724.9958736354,89270.20155866248,10,797,2517,4
-1401.2456472943213,-26.623273795724565,88.31890741272386,272581.946629198,100477.55128823115,86701.96347684911,12,927,2399,4
-1385.3046111248366,-24.84094977305211,82.3407683181188,273848.7271401984,101357.94621767673,84513.85642501895,14,1052,2295,4
-1365.9028257996583,-23.531398059792885,76.80660131878555,274938.5654513332,102377.11205859143,82751.95094084842,11,1175,2193,4
-1343.0506249050059,-22.63700806559508,71.73548260441471,275840.0029090662,103546.48350213202,81461.29053135792,11,1213,2145,4
-1316.8161240865861,-22.03086508169966,67.15036253921411,276551.2589890274,104876.62987319124,80684.57581557061,12,1366,2020,4
-1287.3159581896543,-21.523368006249573,63.080595265347675,277080.1991160234,106376.29716280686,80461.20103408112,8,1471,1931,4
-1254.7021592001868,-20.890466213521197,59.56436352053877,277443.246202628,108051.90918336739,80826.65756461072,6,1559,1839,4
-1219.1535988479106,-19.909590115208093,56.65131341972,277663.7429783771,109907.27748990973,81812.27806322995,7,1704,1714,4
-1180.8759670500745,-18.38907538189117,54.40363699277107,277769.9281455918,111943.30812569364,83445.2654083383,6,1728,1699,4
-1140.1068742638943,-16.189050303091626,52.893369422809876,277792.4592603495,114157.60460409593,85748.68111320172,4,1781,1649,4
-1097.122070477614,-13.231857157804344,52.19628957455844,277762.0978234805,116544.05574700504,88741.09826757199,6,1800,1636,4
-1052.2386595141386,-9.497565053901662,52.38413600857073,277708.0363719691,119092.73548221473,92435.91126769912,5,1846,1596,4
-1005.8130670945228,-5.007429476201872,53.51603342529813,277656.5298900918,121790.36519261292,96840.5348113562,0,1882,1563,4
-958.2370418015106,0.19438713166102906,55.63148465764683,277629.7785914289,124621.09802071235,101955.77099158643,0,1939,1507,4
-909.9319610976414,6.0543702410045945,58.747433126084516,277645.2688513578,127567.41517665943,107775.64683554957,0,1965,1482,4
-861.3378783764913,12.520285484552733,62.85870485296601,277715.4403984621,130611.19376171358,114287.8167828545,0,1995,1467,4
-812.9013988251709,19.549527806562487,67.93951034232018,277847.60435213,133734.61002710834,121474.08175120628,0,2009,1456,4
-765.0666955867924,27.113711811484542,73.9447354711692,278044.2764849247,136920.62671671127,129310.84346231204,0,2010,1453,4
-718.2663050017495,35.2006097108217,80.81126775107286,278303.95175295265,140153.3379345352,137769.783015456,0,2006,1455,4
-672.9123966281426,43.814098722472934,88.45918005786227,278622.00109367253,143418.19320909286,146818.45875948438,0,2010,1455,4
-629.3911038043515,52.97107633153227,96.7921024648564,278991.48690796725,146701.9794743052,156420.68840217474,0,2010,1452,4
-588.0573236344762,62.69528936289256,105.69757572816214,279403.9925384977,149992.70579102033,166537.20882942283,0,2008,1453,4
-549.2301586047951,73.00756518661078,115.04942852321136,279850.44906855776,153279.4655954969,177126.35120993154,0,2010,1455,4
-513.19164193979,83.90756800851541,124.71380875239186,280322.0014383457,156552.36555391966,188144.51228494232,0,2008,1453,4
-480.1899368970533,95.34644853178004,134.55607056578137,280810.9483267144,159802.62035831806,199546.88240820536,0,2007,1456,4
-450.4472705446264,107.20436641789469,144.44335072385678,281311.4762452462,163022.6592617916,211288.00520416512,0,2010,1451,4
-424.16941536746816,119.2862456381192,154.24359917317665,281820.34142936807,166206.30781877472,223321.68825710422,0,2010,1453,4
-401.55177030497276,131.33305781356523,163.82696945882645,282338.056395575,169349.27629387443,235600.74970907273,0,2010,1451,4
-382.77859609703455,143.04417595987732,173.07634435035828,282870.3430354613,172449.60953068093,248076.69502858017,0,2009,1452,4
-368.0169428776012,154.11002170812546,181.9078935466678,283429.1613394799,175507.62095392187,260699.17101922713,0,2014,1453,4
-357.4108137362539,164.24412940767078,190.29060159169447,284033.0638377174,178525.31018031505,273415.4506959922,0,2010,1451,4
-351.0758771630125,173.20455573953606,198.2536837257399,284706.55360109825,181505.25490235275,286170.4485896881,0,2008,1455,4
-349.09264982794616,180.8070099249039,205.88219004404073,285478.25281446765,184448.99035034914,298907.6488835985,0,2009,1452,4
-351.5007228019366,186.9314953060368,213.306254227589,286378.5529855506,187355.42273503504,311570.26861851214,0,2009,1453,4
-358.2953399413054,191.5210552257417,220.68611176127706,287437.15491543245,190219.93854461372,324102.2263375718,0,2008,1455,4
-369.42490125988246,194.57445633938804,228.19378509890365,288680.3118026325,193034.33467587712,336449.5141287943,0,2008,1457,4
-384.78968709707317,196.13666452187005,235.9969056286019,290128.2927671192,195787.23611213017,348561.48776363634,0,2006,1454,4
-404.243474306612,196.2889085629677,244.24874725087795,291793.5930153315,198464.8723466881,360391.46437065024,0,2008,1457,4
-427.5986948596508,195.13796162434187,253.08209393839144,293679.5699784046,201052.2657104159,371897.18549011427,0,2006,1458,4
-454.6327445141949,192.8064582784559,262.6043922753693,295779.3454442135,203534.364247398,383041.03550848225,0,2009,1454,4
-485.0937674669949,189.42559080886159,272.8930766757533,298075.153021467,205896.73008238897,393789.7604749827,0,2008,1456,4
-518.7068877791658,185.12845908839964,283.9899603879083,300538.10413795046,208126.0375643305,404114.2480455995,0,2010,1455,4
-555.1796556664733,180.04360486277366,295.89617568714135,303128.26160670037,210210.51586328135,413989.34919391904,0,2009,1454,4
-594.2069008227311,174.2874709830395,308.57086781340956,305795.21180647484,212140.40514878134,423393.57057431637,0,2010,1453,4
-635.4777725373584,167.95344284404916,321.9337362632389,308479.32554277964,213908.63639344726,432308.98525928485,0,2010,1453,4
-678.682407293048,161.10098252963675,335.8679244204887,311113.31293652277,215511.46808121656,440721.1350366232,0,2010,1454,4
-723.5153043267953,153.75053985022942,350.2224310116043,313624.0868204653,216948.63991099436,448618.6104476588,0,2006,1455,4
-769.6773092363532,145.88412098218015,364.8172409672099,315935.48443289055,218223.08365295987,455992.5827359643,0,1990,1467,4
-816.8760834340021,137.44848471917055,379.45186346646045,317971.2789349961,219340.45149497077,462836.28595678066,0,1990,1471,4
-864.8250699261406,128.35968465889238,393.9162170432626,319657.8449385206,220308.55803882517,469144.39522106905,0,1995,1466,4
-913.2439633719795,118.50840597264673,408.00296641656274,320926.8192652958,221136.71417888597,474912.59100780083,0,1992,1468,4
-961.8602771925805,107.76458800585618,421.51697704842456,321717.489923634,221834.9821987765,480137.2669148269,0,1978,1480,4
-1010.410742252415,95.98020431455126,434.2796415857426,321978.61307208095,222413.28506870856,484815.2164037483,0,1962,1494,4
-1058.6433048610288,82.99093723011116,446.1313191040999,321670.1580810581,222880.28237830245,488943.38463583577,0,1963,1489,4
-1106.3173303815888,68.61855900177021,456.93288904142634,320764.8998585863,223242.28242269522,492518.5694279847,0,1956,1495,4
-1153.2006339640075,52.6757814307475,466.5643788055336,319249.44018816145,223502.44828493052,495536.91243747534,0,1954,1495,4
-1199.0666166233145,34.97361165265776,474.92082887569677,317124.8184386163,223660.2364185986,497993.3158055776,0,1950,1498,4
-1243.6926544689209,15.329031091694073,481.9080053038492,314406.8932389276,223711.11465192292,499880.92364139785,0,1942,1507,4
-1286.8594149476526,-6.427873095918608,487.4407135827345,311126.34021680546,223646.77695681484,501190.71586734644,0,1953,1495,4
-1328.3520314266516,-30.445826426044984,491.44476507478515,307328.18811783346,223455.83556846814,501911.2583226959,0,1957,1491,4
-1367.9611614762073,-56.84308561073592,493.86094061681865,303071.1180244365,223124.6414378586,502028.56844526355,0,1966,1487,3
-1405.482087142278,-85.69797055544493,494.6489720471287,298426.2771398798,222638.06785219823,501526.029179581,0,1941,1507,3
-1440.7134952443357,-117.03972100831264,493.79133971506855,293475.09519833553,221980.41843575597,500384.38857493084,0,1955,1495,3
-1473.4566376611,-150.8406393437082,491.29670676842534,288306.651943435,221136.41465337042,498581.96437994565,0,1957,1498,3
-1503.5160527425146,-187.0108394092946,487.2029266665418,283014.8575751386,220092.14754114355,496095.23763523326,0,1959,1493,3
-1530.7038047378685,-225.3956347065555,481.58033127272387,277694.89535821445,218836.04860402836,492899.9134084214,0,1960,1486,3
-1554.845113897581,-265.77376475393504,474.5347823451084,272439.7512143412,217359.71217357344,488972.1963839532,0,1954,1496,3
-1575.7841986493522,-307.85566293838804,466.20878422403484,267337.62577384064,215658.28203323102,484290.0127234642,0,1964,1491,3
-1593.392214119258,-351.28269700167544,456.779992327004,262469.59097731207,213730.41391002547,478834.166977446,0,1948,1506,3
-1607.575271246189,-395.62649376321576,446.4578903297488,257907.61504087204,211578.0615928635,472589.43021841714,0,1957,1497,3
-1618.2799526895349,-440.38845174493497,435.4779155793267,253713.30715893113,209206.178397381,465545.4595983153,0,1946,1501,3
-1625.496947482437,-485.00188968635786,424.09182379510946,249936.7795598342,206622.2604956931,457697.56772847625,0,1942,1505,3
-1629.2620122402914,-528.8359066908856,412.55698807277474,246615.56089256512,203835.89739703058,449047.58816091216,0,1943,1503,3
-1629.6530961136682,-571.2006331882799,401.1254897537721,243773.7785148811,200858.4727928942,439604.9995482589,5,1946,1503,3
-1626.785549917643,-611.356015396138,390.0299216513474,241421.32528243764,197702.91723507058,429388.24049684306,0,1929,1519,3
-1620.8102360991493,-648.5225932981245,379.4687160580889,239553.10931151014,194383.6531449406,418426.1925393702,0,1958,1490,3
-1611.9175539726718,-681.8968526190044,369.59690667061136,238148.6618356092,190916.99294766848,406759.5771095258,0,1947,1503,3
-1600.341912201438,-710.6756803978554,360.52319325895263,237171.9979392941,187321.94715771562,394441.813659749,0,1944,1503,3
-1586.358989841306,-734.0827707533198,352.31191067411453,236571.83975313482,183621.1982503921,381539.41518463776,0,1947,1503,3
-1570.2762447513246,-751.3954364531922,344.9906283930013,236282.9184549114,179841.97091230753,368131.8663035456,0,1941,1506,3
-1552.4230908306952,-761.9812671561685,338.56589622173686,236228.82625976516,176016.64679245136,354310.73652720376,0,1931,1512,3
-1533.1429819070313,-765.3365251829481,333.042643792549,236325.56127863363,172182.9163898685,340178.7814051124,0,1936,1511,3
-1512.7808530707684,-761.111710819681,328.43199553233404,236485.00813715963,168382.51162547167,325849.0563615735,0,1944,1503,3
-1491.666891449413,-749.1300785655752,324.7365215563747,236618.70722218152,164657.81418659064,311442.91597599257,0,1968,1488,3
-1470.108452270962,-729.4089366056023,321.9221609779053,236641.59623460824,161047.8259974418,297087.4214729405,0,1965,1483,3
-1448.3901440684895,-702.1839391216719,319.8957096866789,236475.34363846038,157585.56818650878,282912.5781655803,0,1969,1481,3
-1426.7738107164016,-667.9305416218342,318.4937995264087,236051.71240709806,154297.36223285997,269047.5020840465,0,1974,1481,3
-1405.4968499508361,-627.369995760832,317.48068576428614,235315.64857185003,151203.66412796878,255616.38096954784,0,1978,1475,3
-1384.7671524323957,-581.4452960204405,316.558077667102,234227.9636054066,148320.89407810534,242734.78437326106,0,1972,1481,3
-1364.7526297104812,-531.2687604063391,315.38896263551453,232768.26033506222,145663.3179645004,230505.2983840819,0,1977,1482,3
-1345.570361498942,-478.0677298412076,313.6249359808424,230937.47907743396,143244.04609822153,219013.8356490879,0,1976,1476,3
-1327.280227241011,-423.1457046716005,310.9275202389977,228758.57008306615,141074.64080031984,208328.41710131255,18,1974,1483,3
-1309.882676270141,-367.8521131266904,306.98789726521625,226275.0818623587,139163.7414085592,198499.57101400514,212,1977,1471,3
-1293.3203294570799,-313.5578118323615,301.55132185562076,223548.6270364738,137516.0155817639,189561.28170379048,496,1991,1464,3
-1277.4851122729763,-261.6220153700786,294.4483153113444,220655.08710691723,136132.4252140528,181531.99806461457,1195,2002,1458,3
-1262.2327916412382,-213.3225190318732,285.6270674697155,217678.84078311894,135011.44001335182,174415.14445754094,1741,2009,1453,3
-1247.4045767112982,-169.7542994436916,275.16504440273076,214706.88103923146,134149.7215255278,168199.26820146255,2024,2010,1455,3
-1232.8540048386772,-131.71220136283245,263.2386194108171,211825.66114049414,133540.4476696124,162858.05202710457,2074,2008,1455,3
-1218.4726108619366,-99.56735517256236,250.0635658584681,209121.26370886885,133168.94272228357,158349.97815490948,2114,2009,1451,3
-1204.2044882489695,-73.197103366592,235.85406630248312,206681.54782969557,133008.49584642705,154618.3183027083,2156,2008,1452,3
-1190.0487597324927,-52.05127209249278,220.83470875667862,204596.89718529672,133020.49130707115,151593.4761296929,2246,2008,1451,3
-1176.0542798823672,-35.34668078827548,205.2871893158439,202954.54893732176,133159.9962989132,149199.2728444719,2232,2008,1452,3
-1162.3086588016765,-22.269554033740935,189.57884141953508,201825.62406424276,133383.2844348514,147361.744494612,2205,2008,1451,3
-1148.9227489724492,-12.089110594658058,174.13311428597922,201252.32822854785,133652.63762244643,146016.27152379742,2149,2010,1451,3
-1136.0109128311121,-4.193174934873776,159.35596835991063,201243.65788295347,133937.59785292178,145110.08452047297,2056,2010,1452,3
-1123.6716011526478,1.9113169481428076,145.5758447359299,201779.98679784,134215.0479540298,144600.68849244085,2007,2009,1451,3
-1111.9759845091169,6.610094678343173,133.02899000094402,202821.06669216408,134469.56301652215,144452.67989554667,2043,2011,1454,0
-1100.9670410483582,10.196858522942152,121.8713387678278,204313.49558188592,134693.28115500524,144634.81271604568,2066,2017,1452,0
-1090.6646274475997,12.893460469272515,112.1905288806372,206197.17229139834,134884.31480924317,145117.81702481696,2133,2014,1451,0
-1081.0702044485156,14.870933620017764,104.00854972424256,208410.09660590705,135044.2561876381,145873.23179888102,2154,2017,1452,0
-1072.1688828098129,16.264144497306567,97.28007840084892,210890.97145962188,135176.04947296216,146873.37690989827,2229,2018,1454,0
-1063.931118549895,17.181007330372914,91.89625864334103,213580.70743105243,135282.8319889024,148091.9615379254,2260,2031,1454,0
-1056.317152972641,17.70821178439211,87.69770701067371,216423.4628852982,135367.7992848161,149504.64799448,2314,2043,1450,0
-1049.2852609322597,17.91354750109311,84.49683522607678,219367.36326415333,135434.7366806188,151089.19345941022,2338,2029,1451,0
-1042.801110718815,17.846613930062695,82.10567822823418,222365.3881730164,135488.44742527328,152825.1570242587,2344,2030,1456,0
-1036.8431295193272,17.53961443926289,80.35674793351623,225376.3028315493,135534.47404613,154693.361235672,2360,2044,1451,0
-1031.4009092346914,17.009455634792566,79.10791425443496,228365.245357794,135577.99381340196,156675.36884959103,2390,2034,1452,0
-1026.4675543986302,16.262188982990644,78.23679739187216,231303.970207823,135622.32536634876,158753.14856478458,2400,2036,1452,0
-1022.0303127595321,15.298599160783356,77.63509105446276,234170.61908929673,135667.96203896447,160908.9363312883,2369,2039,1449,0
-1018.0644577245243,14.119263816745706,77.20759594741506,236948.76537369966,135712.79987050896,163125.36711755025,2306,2047,1451,0
-1014.5325814210574,12.729244681494901,76.87498277959791,239625.88532461188,135753.3141776383,165385.94699392945,2257,2047,1452,0
-1011.3887414780341,11.142181815768874,76.576891101957,242191.82490571373,135785.80416318425,167675.56603088157,2180,2056,1454,0
-1008.5853405012507,9.382223149736335,76.27227476482693,244637.72420250627,135807.13618868287,169980.73191683457,2108,2054,1457,0
-1006.0800430958741,7.482474221728058,75.93657848999631,246955.45375789804,135815.0810457715,172289.5661432385,1981,2056,1450,0
-1003.8401025760699,5.480445055748988,75.5577092097625,249137.44833634968,135808.40938842954,174591.63712246093,1878,2074,1454,0
-1001.8428475526053,3.4125090690168225,75.13171820614511,251176.94150895582,135786.68445234743,176877.67782252244,1793,2085,1449,0
-1000.0734331259556,1.3093345136208743,74.65796951750696,253068.58510394036,135749.77323126432,179139.3066401797,1616,2077,1453,0
-998.5218698892987,-0.8058713907457071,74.1349606781257,254809.1009297998,135697.33206228493,181368.76873529807,1491,2075,1451,0
-997.1804186173217,-2.9157631313288745,73.55798785157326,256397.65400117557,135628.49154484796,183558.71179189536,1430,2093,1454,0
-996.0416475819908,-5.006062894940219,72.91848189381847,257836.00062240363,135541.73993681077,185702.08010286166,1327,2110,1454,0
-995.0975827573112,-7.063945459977943,72.20493610041767,259128.40024633266,135434.95185086888,187792.0908656809,1186,2097,1456,0
-994.3397383978332,-9.077578444334609,71.40574867110676,260281.1468942287,135305.57503570235,189822.25582138667,1067,2084,1457,0
-993.7591193536405,-11.035709552823123,70.51336623248953,261301.7668533414,135150.96136598682,191786.51179136615,940,2087,1456,0
-993.3459425789368,-12.92695533085589,69.52773574014927,262198.1688705418,134968.71482349175,193679.37080167502,846,2080,1453,0
-993.089534961807,-14.738941171978684,68.45749968465613,262978.02245313255,134756.91012624794,195495.91556892297,752,2074,1452,0
-992.9787978156942,-16.457616406857763,67.31901480912198,263648.38698763755,134514.16076786976,197231.68439012504,676,2075,1458,0
-993.0030930078025,-18.06716220654783,66.13414309634784,264215.474567161,134239.60905690363,198882.584740232,571,2095,1456,0
-993.1529773493909,-19.550883553623265,64.9277221005722,264684.49843913206,133932.9246288374,200444.82460073612,516,2108,1459,0
-993.4202787274401,-20.89319567306655,63.72555361704605,265059.6212616357,133594.37666393738,201914.84623136005,437,2097,1465,0
-993.7974624427225,-22.081945205409028,62.55366866549021,265343.9908118025,133224.97915102344,203289.33113174434,372,2073,1471,0
-994.276851842655,-23.11034629310402,61.43846171798386,265539.81722903287,132826.62415425014,204565.24627078214,326,2080,1491,0
-994.8505483514186,-23.97864107506591,60.40648371669031,265648.5213124688,132402.07593904037,205739.8974153355,306,2069,1492,0
-995.5111328745289,-24.695378765995844,59.48351340323137,265671.0180444817,131954.78452019708,206811.03356402318,281,2091,1496,0
-996.252092591383,-25.27796505969568,58.693115570128235,265608.0623923146,131488.63865360277,207776.94141648602,254,2066,1536,0
-997.0671446615139,-25.752506741068824,58.05497538937524,265460.5763620047,131007.75222115584,208636.4729183015,235,2069,1515,0
-997.9489402577883,-26.152961182565505,57.58364654336315,265229.9779787738,130516.25556730013,209389.0706656679,202,2056,1521,0
-998.888248176479,-26.519156827896968,57.28800359811376,264918.45735403,130018.11410186888,210034.800329045,191,2043,1533,0
-999.8741417936686,-26.89354372759278,57.17099393863032,264529.10856518487,129517.01338578117,210574.37193789627,186,2022,1558,0
-1000.894829865942,-27.31764322215919,57.22956690557351,264065.95362679806,129016.2815482014,211009.19029282095,187,2042,1556,0
-1001.9387184179942,-27.829232276186612,57.45539532912224,263533.93944366893,128518.85737083765,211341.42193748578,190,2059,1549,0
-1002.995719516471,-28.46093662767483,57.836818432428466,262938.8900567554,128027.3180426517,211574.02429725332,155,2070,1554,0
-1004.0586352373098,-29.240572883438055,58.36116427515083,262287.3606354887,127543.92987353067,211710.71381231557,173,2084,1569,0
-1005.1243912536727,-30.192469454778575,59.01655703142575,261586.46692719063,127070.69942737791,211755.85975741994,142,2091,1559,1
-1006.1951482289039,-31.33882311691954,59.79362663188103,260843.77618397409,126609.39179800799,211714.27808974794,101,2098,1563,1
-1007.278889932521,-32.70028259286184,60.687056193457956,260067.20510753093,126161.46778974308,211590.93004722305,78,2097,1579,1
-1008.38908593197,-34.2949778764724,61.69553662843948,259264.91404487684,125727.95953839693,211390.62620190327,84,2106,1571,1
-1009.5438020328709,-36.13656663329152,62.81974134232033,258445.25762712347,125309.30442107617,211117.80918388936,72,2108,1581,1
-1010.7644966507524,-38.23190982447138,64.06050366117532,257616.76107140112,124905.12768033787,210776.374709699,66,2131,1587,1
-1012.0747135716431,-40.57897630954954,65.41862948940495,256788.04605895086,124514.07326764964,210369.52110683665,46,2104,1595,1
-1013.4996573114712,-43.16730458741923,66.89469839138053,255967.60642914867,124133.8495837412,209899.64477660973,58,2090,1603,1
-1015.0665523650437,-45.980914962050946,68.48850487372509,255163.43141156592,123761.53700289036,209368.27410713336,27,2129,1620,1
-1016.8043082952935,-48.999885432666986,70.19979983935414,254382.69648614284,123394.01424681008,208776.06546774769,2,2130,1641,1
-1018.742538416759,-52.199162112488104,72.030037655469,253631.65045253708,123028.31937503592,208122.85979319643,0,2135,1727,1
-1020.911465535006,-55.546911200496986,73.98392383732636,252915.5955065983,122661.88090549521,207407.7569721002,5,2164,1768,1
-1023.3432974537976,-59.004908102357646,76.07050851023853,252238.84559649148,122292.58402434824,206629.16893451047,3,2146,1798,1
-1026.0739544762862,-62.53094370279171,78.30369065095844,251604.62209974573,121918.65553393983,205784.79632238348,0,2151,1798,1
-1029.1436558169025,-66.08104680122888,80.7019436925711,251014.95572356164,121538.4844610131,204871.5274523735,0,2116,1695,1
-1032.5961831311104,-69.61023293772348,83.28754068017614,250470.69211854629,121150.4963725306,203885.3123520134,0,2125,1779,1
-1036.4774819961397,-73.07213701943131,86.08589092296633,249971.57267018515,120753.08107487463,202821.04513417865,0,2170,1828,1
-1040.8340472855389,-76.41802136834843,89.12519764102116,249516.30522822044,120344.55738750673,201672.53030491082,0,2081,1733,1
-1045.711323741897,-79.59571811054629,92.4359358677031,249102.57512779214,119923.16007814358,200432.61465376,0,2065,1763,1
-1051.1521521220677,-82.54919921619775,96.04958235243186,248726.9965369641,119487.01487521907,199093.48016252395,0,1983,1821,1
-1057.19551909478,-85.21960204103436,99.99696591887762,248385.06227771228,119034.12373307682,197647.04533480474,0,1983,1858,1
-1063.8774493068972,-87.54981069216586,104.30461183970739,248071.13479365676,118562.37925429916,196085.39555756733,0,1950,1885,1
-1071.2363471890794,-89.49362277693797,108.98391987366756,247778.4764195844,118069.54099561258,194401.1352599056,0,1854,1963,1
-1079.3183757634995,-91.02472010426753,114.01560794597272,247499.49421982034,117552.99304695964,192587.66396837964,0,1836,1988,1
-1088.1738673303655,-92.13898616842846,119.34239306988445,247226.6484998801,117009.2452221716,190639.4761705748,0,1756,2066,1
-1097.8472465827701,-92.85057742586977,124.87534970081829,246954.03611924656,116433.80140328126,188552.40532136333,0,1623,2161,1
-1108.3719829843214,-93.18666283694638,130.5064869524884,246678.72843650452,115821.9627156532,186323.67354138123,0,1539,2209,1
-1119.773535433379,-93.18278376150876,136.1213640176783,246401.04366529177,115170.09712966665,183951.72608681826,0,1530,2254,1
-1132.0741369208663,-92.87791854375303,141.60994488996542,246124.02550773832,114476.59599555604,181435.86104299137,0,1421,2312,1
-1145.2937905153403,-92.30884308054333,146.87271696319849,245852.95408134465,113742.14431750822,178775.86080684958,0,1352,2384,1
-1159.4475387432942,-91.50525224016899,151.82145382857868,245595.30275872437,112969.29596583301,175971.86262538313,0,1301,2424,1
-1174.5420145335797,-90.48742868595212,156.37799034868289,245360.9502820561,112161.74987200933,173024.4131747207,0,1219,2475,1
-1190.5720741162088,-89.26523474198231,160.4737332888092,245162.25949951707,111323.83508277957,169934.5194937314,0,1099,2542,1
-1207.517684851356,-87.8363078580078,164.05080786812485,245013.84278804457,110460.39110513226,166703.60923869192,0,1039,2573,1
-1225.3420065404348,-86.18434132150003,167.064158656475,244932.09751321882,109576.92785768473,163333.5167186088,4,994,2612,1
-1243.9908715264266,-84.27956611351118,169.4829167909426,244934.52365414222,108679.7931605504,159826.54407407847,0,945,2660,1
-1263.3930155485057,-82.08178542153016,171.28999880068622,245038.78478464775,107776.09776103558,156185.4870890066,0,850,2714,1
-1283.4597188032117,-79.54457557303333,172.47990353292695,245261.80301760804,106873.41102865187,152413.72188992167,0,793,2733,1
-1304.0834441190455,-76.61981814479958,173.05484494910303,245619.17095673003,105979.32796126725,148515.45874267,1,727,2772,1
-1325.1363615738148,-73.26237189573106,173.0197311042373,246124.78667574856,105100.95326520881,144496.06591409643,0,671,2783,1
-1346.4691442063288,-69.43435883439649,172.37781005705511,246790.58334589095,104244.51132045305,140362.47230110978,3,600,2815,1
-1367.9105844402625,-65.10974300055636,171.12818699029827,247626.311177949,103415.27498920474,136123.60079168752,0,569,2866,1
-1389.2680900215955,-60.27945055656601,169.2643285441779,248639.3082202718,102617.73112260997,131790.5990916602,3,465,2886,1
-1410.3271683057715,-54.95509504669344,166.77320664287402,249834.2938269345,101855.83241606319,127376.88503782164,0,441,2896,1
-1430.8495921307654,-49.17035886482323,163.63660946681335,251213.33179280278,101133.29973754082,122898.10196017209,0,346,2928,1
-1450.5724755597575,-42.98072443888214,159.8354790133897,252775.9818146288,100453.98691519698,118371.93202536901,6,330,2936,1
-1469.2091004757783,-36.46185585586794,155.35619430453488,254519.41344331254,99822.26752149788,113817.97014193411,0,310,2927,1
-1486.4509745920209,-29.70640501845644,150.1980271822189,256438.29613658605,99243.39615873483,109257.87255965927,0,330,2930,1
-1501.9712088466617,-22.81985567511587,144.3814381263964,258524.46438352414,98723.81586643934,104715.6674855309,0,305,2943,1
-1515.4301500787965,-15.916269490209359,137.95564503914537,260766.29180694214,98271.26827808755,100218.05736193254,0,297,2928,1
-1526.4830171040844,-9.113523781164929,131.0034383070371,263147.70927009935,97894.54466065532,95794.63991457477,0,299,2920,1
-1534.785970757316,-2.528780081754255,123.64146394917962,265647.1223905469,97602.9624469622,91478.14652796218,0,336,2908,1
-1539.999031067862,3.7233110170181543,116.01414979042929,268236.6364250822,97405.76949766531,87304.72932212181,0,340,2897,1
-1541.7891814266084,9.528582499189833,108.2820535678628,270881.7523299539,97311.63298883538,83314.15889330857,0,413,2831,1
-1539.8364766483953,14.76942681266171,100.6104000188622,273541.4389960687,97328.45065990135,79549.99005663503,0,495,2751,1
-1533.8467598763077,19.323538211855645,93.16075917360723,276168.69885779434,97463.69249984327,76059.63482990827,1,549,2721,1
-1523.5741747576167,23.068305491746788,86.08169465120822,278711.8523185142,97725.13994700981,72894.0294814655,16,723,2584,1
-1508.846505112387,25.88978307511037,79.49742462364966,281116.26166099194,98121.50972613537,70106.94549757527,15,835,2481,1
-1489.5823876144632,27.69725642158113,73.49782507289987,283326.6171122316,98662.47469392762,67753.91794273419,11,1002,2335,1
-1465.7975274677565,28.444977541879805,68.13036562412348,285290.2952682293,99358.08778937973,65890.5326386367,9,1108,2244,1
-1437.6012324161102,28.154460965909664,63.395405404703034,286960.9846287509,100218.05432426752,64570.51726740529,11,1215,2181,1
-1405.1808925272273,26.929315146490836,59.25022099273151,288301.8155223943,101251.28466448735,63844.054124211674,13,1438,1990,1
-1368.7743839993432,24.960420958586784,55.62475133295517,289288.35636246816,102465.84965345288,63756.13546110788,13,1567,1875,1
-1328.6434526676383,22.51945321406767,52.442520655144385,289910.9175774751,103869.15388161036,64345.3264054959,7,1619,1809,1
-1285.061095193659,19.93465390264455,49.63835827219884,290175.03315342695,105467.92961825214,65643.56974769384,7,1649,1761,1
-1238.3115043233468,17.548239291339428,47.17330458788881,290100.2825140477,107267.68461243488,67676.85755114211,6,1707,1729,1
-1188.6970309173505,15.6717612914901,45.04605969551029,289718.37611859065,109271.60681132661,70465.93988270807,6,1764,1669,1
-1136.548513315939,14.55354519739379,43.2932437793183,289070.5387684307,111479.18775462966,74026.35140531043,7,1810,1627,2
-1082.2349053419007,14.355436298882585,41.97672920956468,288203.7792892965,113884.83869826247,78367.68063307361,4,1835,1599,2
-1026.1700560010427,15.138938541260234,41.16631124625943,287166.9452472562,116476.99104136032,83492.5181075457,0,1855,1566,2
-968.814352206872,16.868570443696168,40.92324833100871,286007.46367493516,119238.41703620004,89395.67193735445,0,1883,1558,2
-910.6690740509366,19.432076670687106,41.28468555450001,284768.55179602996,122147.9350915151,96063.9754099483,0,1930,1520,2
-852.2672335629012,22.666335615023584,42.25303299808029,283487.27236030495,125182.55950012484,103476.43735696844,0,1956,1494,2
-794.1623435046315,26.38305365202658,43.79582111955245,282194.04629049974,128319.3648942944,111604.61623886529,0,1982,1471,2
-736.9113618629295,30.397210090328475,45.854091511983675,280913.21788561647,131537.16785375643,120413.38383002185,0,2008,1455,2
-681.0564746017016,34.5543676018445,48.352568463645504,279664.00442628405,134817.674787826,129861.67830137188,0,2009,1454,2
-627.1101911974456,38.75068647900887,51.20905248106464,278461.7030274247,138145.6089883724,139903.2063646901,0,2010,1451,2
-575.5400238258302,42.94606189004482,54.34451011775338,277319.2420757493,141508.1421627721,150487.6673430197,0,2005,1454,2
-526.7568858618877,47.168022013469326,57.69130625754919,276248.7137288844,144894.08500169346,161562.05115714457,0,2009,1453,2
-481.1139115864036,51.500223641402,61.19528416255043,275262.4382475943,148292.97271355594,173071.68370217527,0,2006,1455,2
-438.91088346202287,56.05602253307346,64.81322032441207,274373.5799477963,151694.17805197687,184961.58256436954,0,2011,1451,2
-400.399250920081,60.94816140792488,68.50924042297827,273596.398509752,155086.27110188408,197177.6260440328,0,2007,1451,2
-365.78989821330543,66.26298859505842,72.24921536818978,272946.0388450979,158456.92101818908,209666.97600391656,3,2010,1451,2
-335.26412875037784,72.03899852756368,75.99155261114169,272437.92515370843,161793.4743226626,222378.27285657043,0,2008,1453,2
-308.98348205301176,78.25353345051779,79.67907660478846,272087.1917639634,165083.8904253227,235261.4722286013,0,2010,1451,2
-287.0932696313498,84.8254443654447,83.24174082000057,271908.59636570053,168317.9209788239,248267.14170280093,0,2010,1452,2
-269.718402509751,91.63355513090761,86.6152704787554,271916.9250544787,171488.65220303697,261345.90196547058,0,2009,1452,2
-256.9563125694597,98.53928471356924,89.76679285279883,272127.48398638,174593.68690820615,274448.1066648795,0,2009,1452,2
-248.872939257919,105.40216555916858,92.71245889457231,272556.1594644882,177634.96366458526,287523.7676428222,0,2010,1451,2
-245.50318028736444,112.08835304212016,95.52097009539327,273218.8264437223,180617.21037148286,300523.16281054245,0,2006,1453,2
-246.8535162953023,118.4754216915933,98.30580469660043,274130.38184391457,183545.92389707098,313397.5326166113,0,2008,1452,2
-252.9032406670089,124.45399845758374,101.21097560295729,275303.71494165953,186425.788427123,326099.4298291596,0,2009,1452,2
-263.6026865143003,129.92763796575767,104.39533087261454,276748.67197675735,189259.83982607294,338583.3634912108,0,2009,1453,2
-278.8696736875852,134.81247597615013,108.02112419220755,278471.1451930535,192049.2282235762,350806.5285942371,0,2008,1454,2
-298.58573977664406,139.03701642581186,112.24904484171658,280472.39747912396,194793.4455729236,362729.3523570149,0,2009,1452,2
-322.5935653944026,142.5419629427148,117.2366741532656,282748.50940679805,197490.88248382017,374316.3874577633,0,2008,1453,2
-350.69785508674875,145.280016451606,123.13748269736156,285289.8502463959,200139.32386876873,385537.02337804565,0,2009,1452,2
-382.6707249126346,147.2155980451273,130.09902258686645,288080.52934182086,202736.10491585016,396365.19101449265,0,2009,1452,2
-418.2582911037564,148.324440344342,138.25868912068162,291097.7564436433,205278.0217849267,406778.4309889808,0,2009,1452,2
-457.186031244727,148.59293452692575,147.73414232845022,294311.0873094344,207761.0880393985,416757.05006940407,0,2010,1454,2
-499.1643239066198,148.01675634521226,158.60751660721024,297681.6546377375,210180.16913346626,426283.73444442387,0,2010,1454,2
-543.8932342764751,146.59798434066377,170.90968700833974,301161.6380969997,212528.64764746296,435343.3938488895,0,2008,1455,2
-591.06633955895,144.33905145422074,184.61255514678552,304694.4440710674,214798.48965770172,443923.03759362607,0,2008,1452,2
-640.3759740030551,141.23299473978892,199.63051364764485,308215.82136382355,216980.97463819128,452011.8532213268,0,2009,1452,2
-691.5178032588507,137.25321667577415,215.82674409257424,311655.3789818156,219067.70020098845,459601.13424413675,0,2006,1455,2
-744.1934547373661,132.3447152205109,233.02202333652616,314938.3693883728,221051.3695883479,466683.71306218824,0,2010,1453,2
-798.1138526447023,126.41586551858559,251.00670915227207,317988.2366186073,222926.30578522655,473253.22287495993,0,2009,1455,2
-853.0012595870801,119.33261337834217,269.5530774084706,320729.47107984,224688.57075676226,479303.34783622326,0,2009,1455,2
-908.5872750973529,110.9188893975567,288.4261131944917,323090.4211723607,226335.46492784767,484827.0629100278,0,2010,1455,2
-964.6087785712447,100.96454420842032,307.3956550268267,325006.56652400934,227864.512759003,489816.0506654609,0,2008,1456,2
-1020.8022895475514,89.23849891377382,326.24767870856425,326423.59475822654,229272.32378131052,494260.2499491373,0,2009,1455,2
-1076.8964408369282,75.50457055497522,344.78961479134233,327299.3415422941,230553.60221604473,498147.46867772064,0,2010,1452,2
-1132.60536615581,59.53819972915545,362.8508694539911,327604.959571738,231700.36901232105,501463.24709047197,0,2007,1455,2
-1187.6248683966214,41.139684543312356,380.2817092502126,327325.5983257842,232701.5223711568,504190.93519764603,0,2011,1455,2
-1241.6328090770628,20.1406475172454,396.9515772140656,326460.3242372679,233542.89432785456,506311.8403863609,0,2001,1460,2
-1294.2947479767572,-3.5946293829827654,412.746872576223,325021.28658170736,234207.75775747836,507805.512230884,0,1995,1464,2
-1345.2706441710789,-30.169685749191494,427.567311951839,323032.58390325215,234677.47354589967,508650.08883921616,0,1972,1481,2
-1394.2199583549343,-59.65507155280063,441.32117785784345,320529.40834425634,234931.96913916137,508822.5026726594,0,1956,1496,3
-1440.8071163670963,-92.08255355021326,453.9224083858182,317557.39907092694,234950.14518693186,508298.5652252221,0,1973,1483,3
-1484.7051973547216,-127.43228989854296,465.29073946490115,314171.67136272223,234710.48301995668,507053.07768220623,0,1963,1487,3
-1525.5952673606785,-165.6172916754339,475.35246824278823,310435.54121283727,234191.80611543913,505060.06575617776,0,1961,1488,3
-1563.1665959605248,-206.47233946684287,484.0418279207228,306418.82718044333,233374.16330291645,502293.2722568954,0,1965,1493,3
-1597.1234201668638,-249.7493160131297,491.30529231202854,302195.25178641,232240.01501272223,498727.0237268402,2,1965,1488,3
-1627.1952021744294,-295.116233002222,497.1077661470803,297839.5413463272,230775.55730955448,494337.35460761696,0,1960,1495,3
-1653.1471499030852,-342.15932250382787,501.4388110807807,293424.7426490218,228971.83078013163,489103.23056157446,0,1946,1505,3
-1674.7929715563876,-390.3891073370742,504.3183252082542,289019.3553523579,226825.50961227133,483007.87243012356,2,1947,1503,3
-1692.0075033928808,-439.2467631078931,505.79940186134127,284684.8750877224,224339.27850634887,476040.1116020331,0,1952,1498,3
-1704.7353936949062,-488.10893490942027,505.9659400013529,280474.5011255458,221521.58697212933,468195.55250784475,0,1943,1507,3
-1712.9965783459827,-536.2946755250338,504.92579833446865,276432.5408254116,218385.80177494307,459477.44985940744,0,1943,1505,3
-1716.8876891067118,-583.0734196605999,502.8030101809403,272594.18975532043,214949.24031486723,449897.52734063135,0,1938,1508,3
-1716.5759094486968,-627.6714081834822,499.7293447385466,268985.62809155777,211232.27709959008,439476.87639421603,0,1949,1500,3
-1712.28472241088,-669.2777623818281,495.8312665733095,265624.04999296303,207257.25213707352,428246.84278805304,0,1957,1499,3
-1704.2787052186898,-707.0493157281231,491.2132170135384,262517.5179653971,203047.4836789005,416250.0563412127,0,1956,1499,3
-1692.855852187476,-740.119249325451,485.94289517421595,259664.63759854468,198626.99634734876,403541.55079855805,0,1941,1506,3
-1678.345656475541,-767.619925289131,480.0428553289,257053.90831357747,194021.1239169911,390189.5300082243,0,1946,1503,3
-1661.1066753169146,-788.7187625510273,473.4914191890901,254663.17855144848,189258.01456690853,376275.89106649434,0,1965,1484,3
-1641.5210986889729,-802.6648202627646,466.2372088994316,252460.1506764296,184370.95945219113,361896.56121336546,0,1952,1496,3
-1619.9864727798124,-808.8437988677306,458.2310656902108,250404.33501261266,179400.80617349184,347161.34438376286,0,1940,1511,3
-1596.907977996852,-806.8232730874253,449.4608900132639,248449.75123513569,174396.98268555326,332193.5378176208,0,1946,1506,3
-1572.69274351379,-796.3814827692538,439.9600514298889,246547.70587577147,169415.41633608603,317128.473880631,0,1950,1499,3
-1547.742591294349,-777.5353272754165,429.7849253307864,244649.759300073,164513.2561681079,302109.6040975135,0,1943,1504,3
-1522.4449357402555,-750.5678221134481,418.98641211539524,242710.57715615552,159743.40501585527,287283.653125869,11,1968,1487,3
-1497.1632398680417,-716.0339930575236,407.5914545022179,240690.21716480047,155151.7322696899,272796.0391885892,1,1966,1484,3
-1472.2259286122994,-674.7339814308947,395.59190673249657,238556.18728830892,150776.77612281783,258785.3314815681,1,1966,1482,3
-1447.9158111834809,-627.6678100165202,382.94116609711403,236285.42887972514,146650.69977121975,245377.7815654395,0,1950,1503,3
-1424.4618978229369,-575.9913760534254,369.5668021325125,233865.95280769223,142800.66127746674,232683.57562556246,0,1960,1489,3
-1402.0315699218088,-520.9799145472577,355.39773289057734,231297.84234607287,139249.87059770466,220794.1174934981,0,1980,1477,3
-1380.7216897757646,-463.997255767142,340.3897086040691,228593.2501611319,136018.00714664784,209780.62935849297,0,1992,1473,3
-1360.5501144617772,-406.46693892558767,324.53919519353104,225775.06628767707,133121.12690541768,199694.7746897834,148,1988,1473,3
-1341.4514227894697,-349.8460844823086,307.8934972257283,222874.50136319763,130571.50066671832,190570.21994842487,454,1991,1465,3
-1323.2808815618396,-295.59344954841066,290.5631577059511,219928.68864319116,128377.88578420931,182424.10048349082,967,2000,1463,3
-1305.834268766925,-245.09264138958767,272.72249955511023,216978.87327699384,126545.8410699942,175258.03696631725,1609,2010,1454,3
-1288.8881209016074,-199.50915321117859,254.57888671831492,214068.81396197807,125076.82111634235,169058.43083592466,1859,1996,1466,3
-1272.2420897596896,-159.62984527854752,236.31899780930004,211244.3205028819,123965.54076291564,163796.20146192412,1989,1994,1465,3
-1255.7391940762857,-125.7586711428709,218.07119155938636,208556.39424367872,123196.4333924486,159426.41846465098,2198,1995,1465,3
-1239.2683041235734,-97.71159896755378,199.92081035412454,206068.30747453676,122741.08021887646,155888.53898125768,2313,2012,1453,3
-1222.7693485373368,-74.91342119370827,181.9733992307646,203861.3309374832,122558.97453375209,153108.4292390638,2372,2010,1451,3
-1206.2471436813364,-56.56942569574987,164.41215865669471,202030.29087843306,122602.59376650226,151003.56099045207,2370,2011,1453,3
-1189.7817949039588,-41.85792144968339,147.4967489421291,200666.4389543844,122824.40583626599,149491.15916731508,2336,2013,1454,3
-1173.5220391861544,-30.06131543190565,131.50557592985737,199837.6773509251,123181.40334252526,148495.8204676274,2312,2029,1451,3
-1157.6567200523175,-20.596235900694417,116.66796274166127,199578.14132915187,123635.77288156441,147953.2470918087,2340,2021,1453,3
-1142.3715014148033,-12.987004128705953,103.1246439363646,199888.9463500981,124154.49722094946,147810.211892711,2339,2024,1451,0
-1127.8120570888161,-6.838434544472765,90.92680531233569,200744.5648284313,124710.138651842,148022.56121900756,2379,2029,1450,0
-1114.0698587218346,-1.824440854243552,80.06321054124895,202099.86748518544,125282.19787408294,148552.56967273442,2409,2029,1453,0
-1101.1864760797253,2.3167300562312056,70.49220043012741,203896.46115068073,125857.38772440769,149366.48396925328,2445,2031,1456,0
-1089.165512468735,5.7875275213423265,62.157947222356015,206068.2486020714,126428.10173150952,150433.13246869858,2468,2037,1455,0
-1077.9853241584844,8.733910074795812,54.990328525806824,208545.62117397855,126990.13733480073,151723.71881944174,2494,2042,1449,0
-1067.6117184289483,11.246768522644603,48.90311879836018,211258.7565429694,127541.09416705185,153211.92925789242,2501,2039,1451,0
-1058.0109548147022,13.368648159730178,43.79849248455482,214140.9248570257,128079.64782414504,154873.7885218211,2493,2037,1458,0
-1049.1582494077197,15.107276102554007,39.57453671957917,217131.2637481299,128605.28272368429,156687.28199731314,2494,2045,1454,0
-1041.0380534553492,16.451438565708468,36.13117510309454,220176.50135808391,129118.0526350606,158631.87395197147,2456,2053,1455,0
-1033.6391772428885,17.38608546617409,33.37331887358026,223232.0762299039,129618.09537895795,160688.02875379368,2410,2064,1451,0
-1026.9497833819266,17.903543879647955,31.212324185105757,226262.58548645952,130105.124730388,162836.80298190986,2406,2056,1451,0
-1020.9530289056678,18.009209110989474,29.567047499626213,229241.11629170305,130578.28188040537,165059.61481647615,2400,2060,1452,0
-1015.6224354441214,17.723856393998116,28.3649463653547,232147.7004266928,131036.33951873257,167338.26673386138,2355,2060,1452,0
-1010.919267437758,17.08381684384874,27.54231911472066,234967.56233978266,131477.94969183006,169655.11091566732,2331,2056,1452,0
-1006.7944545573328,16.138263499905257,27.042387031216887,237689.50951279182,131901.80423543265,171993.2977553877,2291,2062,1453,0
-1003.1940891421455,14.943599967518347,26.811447033430348,240304.45839974165,132306.81159111514,174337.15104368405,2264,2058,1451,0
-1000.0654294807712,13.557030158672806,26.795530566423963,242804.3166006817,132692.30175453084,176672.46442420906,2202,2072,1451,0
-997.3614518930093,12.031064873100483,26.939923353332166,245181.59720543193,133058.1534721769,178986.52939998728,2147,2074,1452,0
-995.0435608012293,10.408913393080969,27.191450519507526,247429.74738908233,133404.77612997155,181267.99773326438,2017,2061,1451,0
-993.0820247896287,8.721780166222354,27.5012627091573,249543.71611643638,133732.92642774273,183506.6564135985,1943,2066,1451,0
-991.4538925115343,6.9897845827377765,27.82605924175312,251520.4247487387,134043.36231517515,185693.1809044478,1849,2078,1452,0
-990.1393723152861,5.225720596592561,28.128013000922213,253359.17462426826,134336.4041069803,187818.99633017,1744,2073,1454,0
-989.1189031980692,3.439040938750831,28.374718302271905,255061.87435268052,134611.58494454194,189876.22168018547,1649,2077,1453,0
-988.372380865418,1.6388980530993913,28.53965179399726,256632.86316492286,134867.55737964745,191857.65178957747,1560,2077,1452,0
-987.8796328271994,-0.16325187485543638,28.603233606441332,258078.40630383813,135102.2454000796,193756.8230448435,1486,2066,1455,0
-987.620741110338,-1.9516714591980402,28.55406592197267,259406.0673173389,135313.08802708605,195568.07437449603,1381,2056,1452,0
-987.5759625143605,-3.7057703585820603,28.389174936843308,260623.9944145507,135497.27278436153,197286.51942403708,1324,2064,1453,0
-987.7253577837532,-5.400808783305335,28.11280345950021,261740.10573967666,135651.9740606311,198908.0047079318,1330,2065,1453,0
-988.0482410648655,-7.009197843042194,27.734558154593646,262761.35815077415,135774.57208236321,200429.060144664,1204,2073,1453,0
-988.5229359230384,-8.502616093303205,27.267446217608683,263693.30592562805,135862.8020457001,201846.82762161107,1109,2068,1453,0
-989.1272573858215,-9.855443296582454,26.725732695748068,264539.92452391837,135914.84381928455,203159.03019038128,1000,2090,1455,0
-989.8394568560495,-11.048405944094029,26.123178168492892,265303.5820323608,135929.36533118182,204363.94972241492,874,2095,1452,0
-990.6389785638195,-12.07107412245945,25.47253748828113,265985.15978713444,135905.5483662078,205460.36224128597,808,2105,1454,0
-991.5066305133864,-12.923240361048258,24.78641039917565,266584.36101234314,135843.13897212205,206447.47794829003,765,2109,1451,0
-992.424254633972,-13.615236095896273,24.07869151693686,267100.0847313502,135742.5099800836,207324.89954374873,705,2108,1455,0
-993.3742483526463,-14.166864463568828,23.365545825768567,267530.7672867801,135604.69378456264,208092.5945328941,709,2116,1453,0
-994.3390754037703,-14.605469434208295,22.66527740408513,267874.74342405837,135431.36938174008,208750.9052599049,695,2123,1455,0
-995.3008901842737,-14.964261788893731,21.997382453264567,268130.5791874345,135224.81910988333,209300.5652959561,647,2147,1461,0
-996.241734622236,-15.280936425719311,21.381385242319816,268297.3078572492,134987.85543283762,209742.70664377,606,2169,1469,0
-997.1442711980358,-15.5956904617462,20.835600178315012,268374.61257205874,134723.69950715787,210078.8969462848,539,2164,1463,0
-997.992346354874,-15.948727980588366,20.37588288995851,268362.93895502604,134435.84421110732,210311.18701450352,521,2156,1469,0
-998.7711068169647,-16.377966001378567,20.014607508103595,268263.4815733809,134127.9398237982,210442.12877393194,499,2147,1460,0
-999.4669266232626,-16.917187663431086,19.760121216710353,268078.0776187914,133803.69575487627,210474.78124798223,499,2155,1467,1
-1000.067455975884,-17.595036324113654,19.616727031700265,267809.0792402051,133466.81138255753,210412.7290788766,471,2185,1631,1
-1000.5620893390584,-18.435526197881266,19.5847646253573,267459.22597074346,133120.93169199376,210260.11944848555,406,2207,1641,1
-1000.9426411856618,-19.46011689595964,19.660600842566684,267031.53691988415,132769.58780838666,210021.70606467818,383,2198,1644,1
-1001.2036960953474,-20.69023534795151,19.837118881979066,266529.31535863207,132416.1453461375,209702.85951946687,295,2191,1659,1
-1001.3430767037231,-22.148714077059225,20.105536885637946,265956.3392969234,132063.80903522155,209309.471591304,244,2189,1661,1
-1001.3634078913553,-23.859364617093807,20.458490329794238,265317.16824640374,131715.67092167636,208847.7214265548,266,2209,1673,1
-1001.2740813675715,-25.845002523453093,20.892987480066303,264617.39361991605,131374.7538718369,208323.79744037136,206,2203,1675,1
-1001.091611769042,-28.12489636812374,21.411940595785495,263863.6843691614,131043.98110301314,207743.65047337787,192,2224,1674,1
-1000.8381412504311,-30.71257322164192,22.023751252443777,263063.60977648466,130726.03456221365,207112.76567304373,176,2243,1697,1
-1000.5399634234182,-33.61459254934574,22.740283887416567,262225.37953608297,130423.17764920482,206436.0130030791,153,2222,1705,1
-1000.2273338606992,-36.83040624220315,23.574363913901337,261357.5911543922,130137.12418131265,205717.62114067783,185,2215,1702,1
-999.9350796074563,-40.35292854547145,24.53748088618791,260468.94424866964,129868.95595392233,204961.1968776901,158,2213,1713,1
-999.7031041996988,-44.16925367148904,25.638082449161868,259567.9897212257,129619.09978380978,204169.74248961956,113,2255,1713,1
-999.5766468016826,-48.26126817723233,26.881072613310643,258662.99937894658,129387.38206643502,203345.6655990451,59,2284,1707,1
-999.6064475359752,-52.60624112974278,28.268405500437083,257761.8902423454,129173.12772325816,202490.7619194085,55,2274,1710,1
-999.8486754244966,-57.17724861487615,29.800050527407127,256872.1781115507,128975.25626804469,201606.19640376634,22,2258,1726,1
-1000.3644608186037,-61.9435043497451,31.475087533107377,256000.9739198483,128792.35990501769,200692.48617774152,38,2281,1714,1
-1001.2191943729699,-66.87095020244294,33.292945125258925,255154.97534657514,128622.76902268604,199749.4453823193,23,2317,1711,1
-1002.4819811658073,-71.92281862775387,35.254340527936506,254340.45756222907,128464.60326267507,198776.1259996153,32,2287,1731,1
-1004.2253297290142,-77.05978601970926,37.36163981649529,253563.28464490498,128315.80032263944,197770.76855031654,26,2300,1745,1
-1006.5246997600516,-82.23984532654738,39.618812383668676,252828.91196822794,128174.1200949803,196730.7134583119,35,2289,1734,1
-1009.4575449608486,-87.41805362596915,42.03101929705224,252142.39092875508,128037.13418141757,195652.31914662963,0,2310,1752,1
-1013.1017412312494,-92.54673934300251,44.60386151658899,251508.39568796352,127902.2202075136,194530.9335894382,0,2322,1745,1
-1017.5337720289913,-97.57687485886123,47.34259485687702,250931.2469608707,127766.57947733214,193360.87652724606,23,2357,1733,1
-1022.8273773283448,-102.45984810677047,50.251698812753354,250414.93583698204,127627.29120590085,192135.4504527347,9,2361,1757,1
-1029.0528239754717,-107.14827795363388,53.33497220451896,249963.161699395,127481.40467283782,190847.0247035088,0,2403,1750,1
-1036.2762997779087,-111.59585691806402,56.59577982635258,249579.3721377122,127326.04015274785,189487.1582359401,1,2405,1776,1
-1044.558880846747,-115.75696769660661,60.03682005082081,249266.80921223146,127158.43992412635,188046.69449271576,0,2405,1771,1
-1053.9547368276185,-119.58645830491352,63.65946624317108,249028.58287967564,126975.94256416692,186515.80694826585,0,2412,1789,1
-1064.5089627517953,-123.03961240385199,67.46347133352158,248867.7643183381,126775.94018805682,184884.06876374385,0,2397,1799,1
-1076.2578374868915,-126.07296707955744,71.44686124844351,248787.4474036379,126555.91641319497,183140.59367069157,0,2409,1809,1
-1089.2350869187233,-128.64708533336568,75.60386189769169,248790.73175093773,126313.5880936739,181274.19245482894,0,2455,1824,1
-1103.4791499290145,-130.73093083504062,79.91897274001424,248880.7044454314,126046.97519767136,179273.55084913457,0,2432,1836,1
-1119.0293637477507,-132.30477382012631,84.35981272652252,249060.70702341592,125754.20624987056,177127.50426882014,0,2443,1888,1
-1135.9110474678077,-133.35685517258216,88.87657432675175,249335.08990088935,125433.3106768005,174825.41855628428,0,2444,1895,1
-1154.123788005307,-133.87533943765627,93.41212223397221,249710.04440145253,125082.48812171623,172357.58797217743,0,2396,1926,1
-1173.6419875948973,-133.84502502501604,97.91769929367345,250193.71809320603,124700.87480172154,169715.4786317965,0,2386,1962,1
-1194.421929662726,-133.25038081335245,102.36645875480255,250795.37969115996,124289.23910372771,166891.77985319932,0,2385,1981,1
-1216.4051666178918,-132.07685288313934,106.75785701188393,251524.28948440304,123850.02740499261,163880.47584978258,0,2314,2021,1
-1239.5167525641066,-130.30909243870428,111.11101110977322,252389.00482992057,123386.73344172869,160677.06654587496,0,2257,2053,1
-1263.6626443773578,-127.93068671162952,115.45318003483051,253397.1277199021,122903.03682350711,157278.87294111977,0,2290,2079,1
-1288.728308975944,-124.92569068440064,119.80877543384321,254555.11430256336,122402.15052241649,153685.33256975008,0,2279,2136,1
-1314.5784232020753,-121.27992810370387,124.18927194552582,255867.9924804611,121886.53454964512,149898.22115009077,0,2259,2144,1
-1341.056231655265,-116.98205167204507,128.58519108591997,257339.06677214458,121357.93155923448,145921.8602823033,0,2140,2235,1
-1367.981748127153,-112.02551665556504,132.96197777238478,258969.75552845252,120817.6143930218,141763.30755202717,0,2095,2250,1
-1395.1500124967597,-106.41168432536902,137.25870096747246,260759.60340238485,120266.70225667869,137432.4191741355,0,2025,2129,1
-1422.3297229605944,-100.15278450052877,141.38796611020294,262706.34089112864,119706.42343532505,132941.90991457817,0,1884,2196,1
-1449.2619261868479,-93.27365220590904,145.23746740428643,264805.94652834884,119138.28845621429,128307.46413197127,0,1840,2229,1
-1475.6591096007824,-85.81234273827965,148.6739080480674,267052.7658494478,118564.2249582703,123547.72159598504,0,1751,2279,1
-1501.2039481228971,-77.82023557481853,151.54832137572382,269439.5558717532,117986.7369315022,118684.24812900649,10,1678,2331,1
-1525.5478607904295,-69.3621009072736,153.7030083151116,271957.3028632549,117409.14198137028,113741.5962557211,4,1578,2335,1
-1548.311533818871,-60.5165595728923,154.9815815523291,274594.8611037615,116835.90856053309,108747.30503115559,0,1496,2377,1
-1569.087806010053,-51.377056333031774,155.24052923284546,277338.467983383,116273.01678252207,103731.95679136562,8,1416,2364,1
-1587.4474927792214,-42.05216485250161,154.3614736661215,280171.0910084385,115728.21646211742,98729.38147167939,0,1295,2419,1
-1602.9494268675624,-32.66421366498009,152.26509157756985,283071.58469824377,115211.08803155209,93776.8063035029,0,1133,2444,1
-1615.1509108670523,-23.347722789607317,148.92235548659932,286013.76398004923,114732.85665887034,88915.00757887225,0,1055,2448,1
-1623.6153950266712,-14.25069067423829,144.3569538017567,288965.5793064791,114305.89831045803,84188.54013686173,0,1045,2452,1
-1627.9205802153772,-5.540536584990107,138.63921688858832,291888.5303755698,113943.0019415259,79645.87251377346,0,988,2433,1
-1627.6694617983883,2.588801227392648,131.87710045044983,294737.42264048447,113656.77714489061,75339.47650112212,0,1043,2415,1
-1622.5064251944198,9.918380832516734,124.2073581581873,297460.8703583386,113459.58315052534,71325.78667434113,0,1117,2375,1
-1612.1392930580319,16.219821890723864,115.78583713434982,300002.91939276987,113363.93690943037,67664.65813497573,2,1240,2267,1
-1596.3600616122328,21.277000626227135,106.77888953365412,302305.35219280317,113383.09749261614,64418.44094984989,12,1445,2175,1
-1575.0586968567789,24.904469606097067,97.35904056699974,304310.5091161806,113531.63125642044,61650.77942677274,8,1619,2025,1
-1548.2332600878058,26.961896952243784,87.7020396755809,305964.94118138816,113825.88317074212,59424.92807982473,10,1705,1879,1
-1515.9978712128895,27.364804135345313,77.98278155057687,307223.05503798195,114284.16769232458,57802.028867995585,10,1850,1745,1
-1478.582137029879,26.09341178140876,68.37221515865512,308050.23429952475,114926.42779419811,56839.67110756806,10,1842,1703,1
-1436.3161564129348,23.205153015075858,59.03588639872052,308426.12820910633,115773.35029938385,56590.31628154097,15,1847,1658,1
-1389.607132702007,18.84975947084692,50.13182884878649,308347.83126233733,116845.08796612675,57099.6894657323,14,1922,1607,1
-1338.9145534697873,13.278793300675046,41.806830252473404,307832.434681018,118159.17147147644,58405.48239767474,17,1863,1620,1
-1284.721978868621,6.844076483244921,34.195392193800735,306919.205665094,119727.1972249566,60536.229425061945,16,1898,1584,2
-1227.51162183983,-0.017298748623418903,27.42484573685979,305670.6307277035,121551.29992571786,63510.45849185174,11,1886,1567,2
-1167.752289074046,-6.81931051019912,21.62074338635629,304170.16788367106,123621.74147501052,67336.56095700293,15,1888,1564,2
-1105.8997373198615,-13.087359006419696,16.905953087441354,302515.95798729797,125915.86646933053,72013.40653323395,6,1882,1573,2
-1042.404926748909,-18.419607044639946,13.39360150472462,300812.85971207486,128398.42906913895,77531.0797189389,2,1911,1546,2
-977.7251998639798,-22.524972434395995,11.174095378421818,299164.2508564493,131024.07038709513,83871.27936864531,3,1930,1507,2
-912.3319559261972,-25.23691716123162,10.297764439868851,297663.04046421254,133742.3320476613,91007.46827878227,3,1997,1460,2
-846.7138519375554,-26.508382223117003,10.762158250932895,296383.99194339884,136503.44393282986,98904.83459323879,3,2005,1456,2
-781.3765667906758,-26.388145316948368,12.514014696761187,295380.03393553715,139263.29452866112,107520.59435114317,0,2008,1459,2
-716.8387160318346,-24.982964886453985,15.466569815047098,294681.9199193251,141987.67787292955,116805.35808975158,0,2006,1455,2
-653.6268884572859,-22.42035074492347,19.522445727381026,294299.68138824246,144654.90701366763,126704.98996309938,0,2009,1456,2
-592.2693459160404,-18.821233235975235,24.59191823325511,294225.50942535524,147255.22080570858,137162.50374165107,0,2007,1453,2
-533.2840437866481,-14.277633539884157,30.602312393426782,294437.8712469572,149787.3001311923,148120.42525396487,0,2009,1454,2
-477.164742599207,-8.835606136320973,37.497031540917675,294905.6245202361,152253.92652581393,159522.87160212293,0,2012,1452,2
-424.3675646233376,-2.491508131221662,45.22562767825331,295591.3916844818,154658.38617364696,171316.69673770812,0,2010,1453,2
-375.29475845182316,4.796727207252054,53.730160913844166,296454.73968158406,157001.90743747586,183452.44551397522,0,2007,1453,2
-330.2823094715669,13.088627921589888,62.934179048796715,297454.8859903567,159282.34422068996,195885.0379743965,0,2009,1453,2
-289.60080304206275,22.432854485651557,72.73731629133937,298552.3126186366,161494.50940452356,208573.73657578707,2,2009,1452,2
-253.46795554727183,32.83303440541359,83.01377430614819,299709.6407786681,163631.8493218882,221481.74338098953,0,2010,1455,2
-222.06446723021324,44.21978879269454,93.61249834130513,300892.13848583144,165688.3853399818,234575.28232978607,3,2010,1452,2
-195.54495539992567,56.441858567492574,104.36014635039109,302068.26240766485,167660.32138224065,247821.9978950892,0,2010,1454,2
-174.04167905395485,69.2755696319544,115.06911884024188,303210.81179442967,169547.53027308683,261189.25993536893,0,2010,1451,2
-157.66422098313967,82.44364530588281,125.55085974989025,304298.54880251735,171354.66610947088,274642.7288563123,0,2010,1452,2
-146.49682603545432,95.63923505622603,135.6369705601652,305317.8684380475,173091.23770974146,288145.5307542684,0,2010,1452,2
-140.5945236664414,108.55352952904542,145.20808204932356,306264.35172146093,174770.5336437287,301658.4084190752,0,2011,1452,2
-139.98106946962514,120.89746606213376,154.21584410202342,307143.58659160795,176407.80546514984,315140.1148056607,0,2010,1451,2
-144.6488413813659,132.41125626811356,162.68181789026525,307970.44681532815,178018.03704238543,328547.5498789798,0,2010,1454,2
-154.55759299751602,142.86704443823157,170.67599854009478,308766.9392997206,179613.60880536202,341836.13906859775,0,2010,1453,2
-169.63123575031338,152.06904947809707,178.2921285902472,309559.7031842603,181202.6971534673,354960.18282175285,0,2010,1451,2
-189.75490799109966,159.85085093233528,185.63185192542858,310377.7878433119,182789.23731146223,367873.0206679963,0,2010,1453,2
-214.77420843695413,166.07055746865157,192.79787722521303,311250.48691986885,184374.28295344638,380527.71301962197,0,2010,1455,2
-244.4967659276974,170.6064375883768,199.89345241231814,312205.3967440517,185957.68250299265,392877.8645373387,0,2008,1452,2
-278.69719583867777,173.35513185596432,207.02699022902826,313266.9336944762,187539.21491174656,404878.08900826663,0,2009,1452,2
-317.1252294637874,174.23249968833073,214.319104692216,314454.99643878103,189119.12225469179,416484.5859627957,0,2007,1455,2
-359.51212383088586,173.17530206872854,221.9069204714515,315783.73959878087,190698.10803724694,427655.54629637406,0,2009,1454,2
-405.5734369250082,170.14172992031692,229.94122444453689,317260.5757982021,192276.79839133448,438351.0696763403,0,2008,1453,2
-455.01102354931095,165.11040339442866,238.57629648986097,318885.2096667605,193854.88112235014,448533.1668423755,0,2008,1454,2
-507.51366994258683,158.07873470337768,247.95628403472227,320648.7093714196,195430.2863672426,458165.7937113954,0,2009,1455,2
-562.7561230377254,149.05997649616356,258.2006591498708,322532.8472786034,196998.71524131257,467214.7733933436,0,2009,1454,2
-620.3996066749273,138.07728322467787,269.3896392136996,324509.7534194683,198553.58517628728,475648.0631943047,0,2008,1454,2
-680.0933053381533,125.15593461263562,281.5536034937195,326541.8281071545,200086.28625922345,483436.12015452003,0,2006,1454,2
-741.4765665239381,110.31492196487416,294.66993015367547,328582.1258775343,201586.83144375597,490551.99103444844,0,2008,1453,2
-804.184172505742,93.55745101962661,308.6652394105053,330575.44857392716,203044.9862936215,496971.41093579173,0,2009,1455,2
-867.8514381094731,74.86306254426479,323.4192989793604,332459.8929796672,204451.37707173577,502672.8066374308,0,2008,1452,2
-932.1160259861332,54.1845971909031,338.77119615106005,334168.94500718213,205797.98533051022,507636.97038330097,0,2008,1453,2
-996.6187796075434,31.44988883281136,354.5304522962154,335634.5448865035,207078.02346134064,511846.64424875693,0,2006,1456,2
-1061.0017906617497,6.5679151666934725,370.49046237113964,336790.35899663955,208285.42396019178,515286.05348913115,0,2009,1454,2
-1124.9007925994504,-20.559455079915004,386.44104565240684,337574.48842852254,209414.05471184806,517940.2935370605,0,2008,1454,2
-1187.9359874115007,-50.02058204320811,402.17990963741505,337931.92176989326,210456.77151999352,519794.80015249504,0,2008,1453,2
-1249.7061237785504,-81.87702938898677,417.51972405787626,337816.5242028629,211404.58553333182,520835.12147136073,0,2005,1459,2
-1309.7886663798429,-116.15146385201702,432.2889331835916,337192.196572043,212246.18900347746,521047.04216695984,0,2009,1451,3
-1367.7468919837486,-152.82046775799557,446.3306973546131,336033.6745196337,212967.80994400496,520417.0251075037,0,2009,1453,3
-1423.1385534016401,-191.80955619146187,459.50291905144735,334327.2946634894,213553.2544817059,518932.74817095173,0,2009,1454,3
-1475.5239280674894,-232.98775365760403,471.67767351031296,332071.69684110093,213984.06629517267,516583.5589186736,0,2008,1453,3
-1524.4770668020333,-276.15984576500944,482.7384143460253,329278.5608568666,214239.73750004938,513360.9150624286,0,1996,1468,3
-1569.5971629348746,-321.0572853180586,492.5764143329532,325973.3580246667,214297.84628570254,509258.8665756879,0,1977,1478,3
-1610.5166109228178,-367.33335137119576,501.08973321057925,322195.6908647315,214134.16386213605,504274.49499927735,0,1976,1478,3
-1646.9088650018448,-414.5667961491762,508.1850973727034,317998.7565162679,213722.97822165073,498408.3013290506,0,1974,1483,3
-1678.4953725285443,-462.2687523062198,513.7785629858218,313447.9664728561,213037.80316962616,491664.76424212364,0,1962,1488,3
-1705.0514370158085,-509.8858277651646,517.7922648060479,308618.527036068,212052.78004852662,484053.22033426556,0,1962,1494,3
-1726.4157956463382,-556.8000280149315,520.1508970040384,303591.79780004086,210744.99764638187,475588.94841622486,0,1951,1496,3
-1742.5024054314163,-602.3287436702825,520.7834452676121,298451.68525335105,209097.0634130719,466294.30932179315,0,1945,1507,3
-1753.309571512859,-645.730129972869,519.6319398740293,293281.790549194,207099.10691771,456199.62367113685,0,1936,1512,3
-1758.9261137635892,-686.2188299413881,516.6644192679106,288162.500507382,204750.07547833023,445343.4877415427,0,1931,1518,3
-1759.5326168315771,-722.9865087511114,511.8851938966762,283168.2849457489,202058.19998557167,433772.8673825856,0,1933,1516,3
-1755.392376127857,-755.2233625381988,505.33565542220674,278365.71293623646,199040.248002616,421543.12450236996,0,1939,1510,3
-1746.8327249660463,-782.1448154585347,497.0847735062936,273811.6087986695,195719.67444378353,408717.7072035827,0,1937,1513,3
-1734.2268762539086,-803.0188096921581,487.21490840967147,269551.4679390898,192124.80156781583,395367.99571214145,2,1938,1513,3
-1717.9827302227782,-817.1891411665895,475.809767103367,265618.4920706736,188288.088048197,381573.55550093576,0,1937,1509,3
-1698.5346469489652,-824.0993060423893,462.94917212470637,262032.83196500983,184246.44292463132,367422.224694174,0,1947,1507,3
-1676.3323406023603,-823.3143051008102,448.7124197176106,258801.02862805183,180042.06902345453,353010.1662960929,0,1952,1498,3
-1651.8226668713617,-814.5383541444284,433.1895404305625,255916.09562226012,175723.30305202206,338441.87018552807,0,1960,1495,3
-1625.4290688065826,-797.6359145882182,416.50060462972954,253358.44608587428,171345.05741297133,323829.5517548987,0,1963,1492,3
-1597.5418143029112,-772.6542177242038,398.81712096482704,251097.54193290093,166968.58160031907,309292.4913367894,0,1965,1490,3
-1568.5203546273235,-739.8374963281101,380.3684844139873,249094.05118558565,162659.3445690333,294956.1648655161,0,1968,1490,3
-1538.69928609423,-699.6340231197141,361.423436105511,247302.37121651223,158482.1332777665,280949.77962360205,0,1973,1484,3
-1508.3935934558478,-652.703507042133,342.25797414033195,245673.0157546833,154495.39916372328,267402.77581839333,0,1979,1475,3
-1477.8995818945295,-599.9243087651168,323.124963066248,244154.54270567608,150747.52808012645,254441.04477559228,0,1992,1470,3
-1447.4896227514664,-542.3932246310612,304.22871959867643,242695.3569531176,147275.43085463688,242182.29291454572,0,2004,1457,3
-1417.4049340488693,-481.4156695910682,285.71003874825226,241245.505570927,144105.10034705006,230731.76431950057,0,2005,1458,3
-1387.8482660204766,-418.4823972700859,267.6516185694128,239758.49670800797,141253.94594925566,220179.16323576425,108,2005,1457,3
-1358.9746200812954,-355.2243271210293,250.1004925579543,238193.2070299602,138734.051150578,210595.52902387525,394,2008,1455,3
-1330.8854476286679,-293.34907330491086,233.0901263083743,236515.45898204128,136554.82399588946,202030.57255648437,663,2010,1453,3
-1303.6384250634774,-234.54108108562951,216.64699808563114,234699.46835418697,134723.78767818477,194511.63049591068,887,2010,1450,3
-1277.2768520181767,-180.2941042008264,200.7807986458023,232730.1994059703,133245.46042229884,188043.41301708732,1024,2013,1452,3
-1251.858991224075,-131.71815850992544,185.47331987630926,230607.2665674963,132119.32893554895,182607.62947481484,1055,2016,1451,3
-1227.457684548716,-89.40464507288314,170.68834813657904,228351.18141226703,131337.64401914497,178162.53088735187,1228,2013,1452,3
-1204.134088330857,-53.399327503417084,156.41012901081956,226011.5085562605,130883.06752282394,174643.2629821542,1305,2018,1455,3
-1181.9231605429136,-23.28998786532487,142.68821083011116,223671.7485429743,130726.7755624508,171964.5952594656,1400,2027,1450,3
-1160.8536735605921,1.6210717792340499,129.65413947626394,221442.95279509344,130828.17194723248,170027.624350995,1454,2024,1451,3
-1140.9806403399505,22.115397570737628,117.48932194773357,219443.8048326448,131137.11718480327,168730.30332891335,1487,2031,1451,3
-1122.389339624288,38.91162026307899,106.35545338975324,217776.5456261276,131598.6079975804,167977.83751586472,1480,2023,1454,3
-1105.1674338592659,52.62018367103866,96.33202939173835,216511.74781100653,132158.14011945596,167688.44150782717,1513,2035,1453,0
-1089.3745766151721,63.760472177999695,87.4010242074544,215686.2383751525,132766.44445962095,167793.62531249452,1513,2029,1452,0
-1075.026683393314,72.7882750570062,79.48041970866508,215309.50750874233,133383.73619937926,168234.99433989558,1545,2031,1451,0
-1062.096728956991,80.10993839420318,72.47507144406322,215371.3602461119,133982.54349799312,168960.53013607027,1627,2028,1453,0
-1050.5294705403792,86.07848682283887,66.30868427953102,215846.65125164945,134547.42594407313,169922.48169954863,1682,2034,1452,0
-1040.2625506635247,90.98071847732497,60.92443753445961,216697.79721003785,135071.66571146925,171076.96357118126,1745,2041,1454,0
-1031.2430382473774,95.02746177461268,56.26714116401413,217877.0089582246,135553.0426837426,172384.36829750123,1810,2058,1454,0
-1023.4308383020156,98.35653238799131,52.26632199911572,219329.7418821505,135990.63954094023,173809.72454520938,1864,2040,1450,0
-1016.7899450521637,101.04977738749577,48.83049502478921,220999.99408004974,136383.01660830213,175322.4826526442,1955,2047,1454,0
-1011.2767585441986,103.15440241244198,45.85216684725115,222835.50412465827,136727.5206518837,176895.78221542173,2030,2076,1455,0
-1006.8326894974574,104.69988703663476,43.219949041754646,224790.7767061193,137020.42369490562,178505.604246816,2110,2080,1452,0
-1003.3806475220258,105.71113238501047,40.83318446179013,226828.15577529644,137257.3212623832,180130.16260554324,2175,2080,1453,0
-1000.8234041340802,106.21856958518421,38.61209381394929,228917.58476085437,137433.4276369969,181749.67721533208,2255,2094,1455,0
-999.0451458328145,106.26354921471186,36.499098685646395,231035.18005513118,137543.8926972649,183346.5302596227,2328,2088,1451,0
-997.9174829253532,105.89949998172368,34.4548722415515,233161.04562040558,137584.40749711468,184905.6792989045,2371,2076,1453,0
-997.3078230567094,105.18990526083572,32.4556366127755,235277.22194341794,137552.00895507884,186414.99695801953,2417,2080,1451,0
-997.087659383064,104.20334061698858,30.493697024595466,237366.36439049442,137445.83429311073,187865.2714299885,2442,2092,1453,0
-997.1404796045637,103.00633571885436,28.578392960987014,239411.03569691218,137267.7025212763,189249.92310009015,2449,2075,1454,0
-997.3677026632332,101.65645644638369,26.73444236386058,241393.42032325082,137022.32066024037,190564.6070108233,2447,2100,1454,0
-997.6902309232897,100.19693242111072,24.996806863975213,243295.60645770456,136716.88727998792,191806.81764405852,2436,2109,1454,0
-998.0464554138307,98.65193463685554,23.403639622672245,245100.4966009446,136360.19829658914,192975.57291323444,2426,2128,1460,0
-998.3896497394785,97.02327090506553,21.99061573446566,246792.88562260268,135961.75329168196,194071.18402737932,2367,2117,1463,0
-998.6863993952802,95.29115838044265,20.7875613547533,248360.35841737932,135531.185250503,195095.0348459762,2315,2117,1459,0
-998.9157285908408,93.41995626413372,19.81562052502315,249794.19917735376,135077.82782888864,196049.27979470286,2239,2118,1460,0
-999.0680616546716,91.36639902958838,19.085074096720913,251090.24668724125,134610.2461846833,196936.45329057603,2177,2135,1461,0
-999.1432337673941,89.08814139277949,18.59552004331372,252249.25861967058,134135.8543020552,197759.09660622285,2123,2127,1460,0
-999.1471650538447,86.552797414994,18.338506650776967,253276.53523163893,133660.72315023083,198519.52748499508,2024,2136,1455,0
-999.0882828035707,83.74587535449774,18.30087803088299,254180.89368226478,133189.52986100648,199219.776365688,1928,2139,1455,0
-998.9751635468846,80.67457541844293,18.467026112696555,254973.399110234,132725.60000183666,199861.6132893375,1732,2129,1454,0
-998.8155674698719,77.36666325682019,18.81960990543566,255666.11454336712,132271.0594756099,200446.6160926397,1596,2127,1453,0
-998.6165287501271,73.86575651508021,19.339561929216092,256270.85287874946,131827.09881262024,200976.27972913612,1485,2101,1455,0
-998.3851788441457,70.22540195696209,20.00652345490942,256798.16554697684,131394.27114858906,201452.10799949826,1349,2124,1457,0
-998.1296585371324,66.50259043078707,20.800622932727677,257256.82503326377,130972.7219648064,201875.64118778962,1303,2152,1458,0
-997.8598092202054,62.750216958373194,21.705280482688675,257653.65170920666,130562.3288802335,202248.4720115332,1286,2131,1456,0
-997.5876415772179,59.01092443774963,22.70927526856483,257993.4682739852,130162.78023230498,202572.2709068256,1188,2149,1457,0
-997.3270708024626,55.31478356736655,23.806780509180197,258279.16558268675,129773.60630678266,202848.77861632343,1081,2160,1458,0
-997.0923936970319,51.67974250303399,24.995582724907685,258511.91162077818,129394.17432466375,203079.7591632741,1003,2141,1455,0
-996.8960670963919,48.112965524797524,26.274624585679994,258691.44722468022,129023.68311192816,203266.94538849086,849,2162,1457,0
-996.7469762817927,44.6123873567954,27.64198325054194,258816.47272459083,128661.19456418607,203412.01459132103,752,2163,1461,0
-996.6498468744744,41.16846805167334,29.093726425362107,258885.18457540532,128305.70771055402,203516.6065571221,682,2169,1464,0
-996.6058251472116,37.76612191922358,30.623459249733095,258895.8155244846,127956.26131220521,203582.34734362128,638,2194,1473,0
-996.6138374447332,34.38680894871824,32.222147895021585,258847.0331238888,127612.04245384892,203610.8344546581,601,2210,1631,1
-996.6719116915644,31.01072479536149,33.87836852343493,258738.27237422546,127272.4752839458,203603.58373735662,581,2206,1633,1
-996.7778184813739,27.61845047319154,35.57931820103219,258570.01801151063,126937.28164761626,203561.9699565981,551,2201,1638,1
-996.9295274347332,24.191383063298765,37.31237590525666,258343.9331906268,126606.52289945155,203487.17734220895,582,2220,1631,1
-997.1264163707222,20.711205911008953,39.06682796807985,258062.8154376824,126280.62647221146,203380.1614797235,469,2241,1630,1
-997.3706713277162,17.159406407169303,40.835104491621365,257730.45871950145,125960.39132174726,203241.63592349892,450,2266,1633,1
-997.6671504443465,13.517568247229326,42.613060340286495,257351.48503747798,125646.95013376753,203072.0814680849,437,2217,1644,1
-998.0214033371683,9.768375165269635,44.39977085917211,256931.16701438877,125341.68177974029,202871.7443886202,331,2243,1650,1
-998.4375319567486,5.896794484918244,46.19747243547621,256475.2861808896,125046.12765951507,202640.6150866331,419,2260,1654,1
-998.917726033955,1.8911495470941837,48.01163471995373,255990.00640900753,124761.93088194195,202378.41195115139,316,2260,1663,1
-999.4641416566951,-2.2555008714496205,49.850628526354605,255481.6687208158,124490.74407562135,202084.5767979116,300,2275,1668,1
-1000.0819709919806,-6.543446209898079,51.72462681349582,254956.53964243413,124234.09046706432,201758.2751333001,289,2277,1665,1
-1000.7817611922637,-10.964471996114007,53.64401820969091,254420.59117263564,123993.17462063025,201398.41232682503,253,2286,1669,1
-1001.5804322428587,-15.500554022479609,55.617960277394765,253879.3145816163,123768.63950869105,201003.6986682217,203,2282,1666,1
-1002.501500102791,-20.123622832133123,57.65365949261218,253337.60102560275,123560.3715847792,200572.77575937178,187,2326,1677,1
-1003.5746353647738,-24.797794689353335,59.756416216798605,252799.6716686812,123367.45963706831,200104.3251031876,176,2320,1690,1
-1004.8343784085307,-29.484088194964425,61.929683419404085,252268.95762003327,123188.28497349899,199597.0424977602,155,2288,1696,1
-1006.318393063778,-34.1449160892013,64.1747096132043,251747.96976066276,123020.65901114715,199049.4860044793,96,2300,1703,1
-1008.0659209405369,-38.74649926454511,66.49064886828434,251238.29735562918,122861.96781046543,198459.89404104598,112,2300,1711,1
-1010.1162946509696,-43.25953207829035,68.87592748102998,250740.74569095374,122709.33969772082,197826.02708901596,84,2283,1722,1
-1012.507555226022,-47.65878888551704,71.33017118906501,250255.51470569667,122559.8316044078,197145.0854469102,77,2295,1745,1
-1015.2762498279561,-51.922802651949866,73.85601030630984,249782.34700589863,122410.60402151942,196413.71363826277,54,2284,1759,1
-1018.458642605005,-56.03418335447436,76.46093670097129,249320.63113156802,122259.06339906732,195628.00585908184,0,2321,1755,1
-1022.092005379268,-59.9795231301923,79.1585826471984,248869.4823438431,122102.92809754515,194783.48057121315,13,2330,1747,1
-1026.214989595601,-63.74803511660605,81.96828188118536,248427.84745531736,121940.16691177072,193875.05363623006,8,2366,1745,1
-1030.8672589314656,-67.32953143286166,84.9132045111391,247994.66880949197,121768.82893619064,192897.0182354001,0,2380,1763,1
-1036.0887223999616,-70.71286736926088,88.0180926680621,247569.0823152303,121586.87836171854,191843.07909433416,7,2415,1744,1
-1041.9184130818242,-73.88518881845494,91.30707412263564,247150.59797254592,121392.12831119538,190706.49168403406,6,2415,1785,1
-1048.3934056795063,-76.83159718200343,94.8020441357972,246739.23914561103,121182.2675968072,189480.2767802369,0,2470,1769,1
-1055.5487553147727,-79.53487308218521,98.52217281825493,246335.60948042548,120954.96006102704,188157.44264352546,0,2458,1775,1
-1063.418663833143,-81.974980964871,102.48435932580485,245940.86076053412,120707.99639569975,186731.16381280654,0,2469,1768,1
-1072.0374870811404,-84.128197686283,106.70382549265642,245556.5979216789,120439.43189278635,185194.91639752695,0,2458,1803,1
-1081.4395448940436,-85.96617737834416,111.1943364988871,245184.7444033806,120147.65969980376,183542.5870329265,0,2502,1780,1
-1091.658195013922,-87.45557359381574,115.96801851313931,244827.3616310356,119831.43076551016,181768.56926739213,0,2497,1797,1
-1102.7261450185003,-88.55916196009682,121.03386003960607,244486.4925330096,119489.84990866664,179867.90206994273,0,2558,1794,1
-1114.6780928476414,-89.2411210659276,126.3916949479939,244164.1411353339,119122.21124459349,177836.45776193633,0,2545,1798,1
-1127.550534496494,-89.4783933845041,132.0197515098596,243862.45361097073,118727.39813511998,175671.13054751564,0,2547,1817,1
-1141.373055213496,-89.26906943119957,137.8636941408206,243584.14200992027,118303.13883876226,173369.99603705926,0,2563,1826,1
-1156.1563585598783,-88.6245323007978,143.84158189665308,243333.1398701852,117846.07845697597,170932.2636233161,0,2559,1823,1
-1171.8884878750455,-87.55421289437881,149.8655045242262,243115.20421512413,117352.99820324138,168357.87382210136,0,2611,1823,1
-1188.5406171602226,-86.06054605089955,155.86257464135568,242937.93591536654,116822.2126939258,165647.06386772604,0,2605,1830,1
-1206.0718640638704,-84.1386238893826,161.7827084880134,242809.96812110097,116253.96718896633,162800.24694995733,6,2619,1836,1
-1224.4281237468285,-81.77224570016371,167.59622218897988,242739.79703791096,115649.71796123838,159818.0816095739,10,2599,1833,1
-1243.5398456783732,-78.93437151423308,173.28632833118516,242735.0149571406,115011.11481904524,156701.59650612483,10,2634,1873,1
-1263.3212016940595,-75.59522251881582,178.83813311609305,242802.04849239156,114339.31202794472,153452.42262764997,0,2569,1878,1
-1283.668732518959,-71.73012130050877,184.2276865177132,242946.02113261106,113634.64766173511,150073.1190821881,0,2569,1893,1
-1304.459491285488,-67.32319511393769,189.41388777212043,243170.63103504313,112896.66446187225,146567.52648865126,2,2542,1899,1
-1325.5507948370978,-62.37086956824031,194.3330513847096,243478.16035425966,112124.45056359557,142941.1310082936,0,2517,1884,1
-1346.7811807832102,-56.887404837373914,198.89637062636973,243869.62534128287,111317.09469405694,139201.45269383027,0,2511,1942,1
-1367.9703516851098,-50.90938208159908,202.99092163852458,244345.00554094015,110474.10420287777,135358.29314486525,0,2450,1944,1
-1388.9179937025006,-44.49695440180143,206.4838656024079,244903.57507233403,109595.79147067212,131423.6613610733,0,2334,1995,1
-1409.4021778157444,-37.73268437477339,209.2287749452405,245544.29614725325,108683.61656377101,127411.59596419708,6,2297,1977,1
-1429.1783639807818,-30.718075895715952,211.07483427825704,246266.11442514608,107740.44971156989,123338.0663429318,5,2209,1999,1
-1447.9809300937113,-23.567756239883366,211.87989694983747,247068.03951007925,106770.75467132006,119220.84263856526,0,2165,2013,1
-1465.5271842696197,-16.40360324169194,211.52367965267723,247948.92416375992,105780.6895345775,115079.45060691207,0,1997,1861,1
-1481.5233546316404,-9.350413540600007,209.91781743593867,248906.80724445713,104778.02257218768,110935.31834902198,0,2007,1827,1
-1495.6725897460456,-2.5327114049733943,207.01335269264104,249937.80074072976,103771.7559269594,106811.94134879221,7,1823,1867,1
-1507.681390403884,3.9268061475804497,202.80417686099454,251034.84924267905,102771.57852026376,102735.07553444851,0,1739,1848,1
-1517.2610281511318,9.906478133711174,197.32328892281967,252186.6908340352,101787.3128419473,98732.98096886196,0,1699,1871,1
-1524.1258607411953,15.282796243368297,190.63314420954111,253377.06339868694,100828.43956784206,94836.54194471201,0,1608,1873,1
-1527.99235500237,19.92621878354855,182.81650003727856,254584.23777094582,99903.95381148017,91079.30426083234,0,1587,1895,1
-1528.5824796148179,23.6965522354145,173.97232425845198,255781.06683875562,99022.81554273129,87497.446220562,0,1601,1884,1
-1525.6332417509361,26.438316901094403,164.21547764029447,256935.55571749219,98194.87271599763,84129.5100457311,4,1634,1861,1
-1518.909587986446,27.97869754312249,153.67784627577524,258011.71061301517,97431.77219361885,81016.05960668581,7,1711,1823,1
-1508.2192652084127,28.13556931150494,142.5090518439097,258970.78465319917,96747.43218539932,78199.41863828691,8,1833,1759,1
-1493.4306273933737,26.73981197887517,130.87361890828248,259773.2797098849,96158.01909195297,75723.27954208096,20,1827,1713,1
-1474.4885277467608,23.663300855622722,118.94415249962361,260381.3426305718,95681.56122662751,73632.16530343806,21,1896,1651,1
-1451.4208525404858,18.842767886306618,106.89247280486762,260761.37221567702,95337.19319660228,71970.64244789339,12,1877,1633,1
-1424.3347170949569,12.298701023440971,94.87960805726232,260887.1715562363,95144.10373828282,70782.00758223486,10,1899,1590,1
-1393.4064148787886,4.1480082177280915,83.0488670833474,260742.95231115824,95120.65460501648,70106.84083418056,12,1889,1607,1
-1358.8651781830379,-5.392464782041567,71.52708512427184,260325.37931552593,95283.94695696706,69981.98610221206,14,1926,1572,1
-1320.9696835190052,-16.010222724625866,60.43042428303759,259644.9271801469,95649.5600846159,70439.96286642372,11,1903,1591,1
-1279.9865459981654,-27.306998768543853,49.86881036028584,258726.83453575597,96231.06591116003,71508.77036485141,15,1915,1575,1
-1236.1793041268395,-38.81928138251044,39.95069430669819,257611.5996784296,97038.80290392773,73212.11589356462,18,1902,1571,1
-1189.805174997765,-50.054727485944696,30.78989475803571,256354.84020951972,98077.6971868328,75569.84707750432,17,1917,1560,1
-1141.1177700295123,-60.53396779349506,22.509611295391917,255026.06124675332,99344.95587829656,78598.20341525684,16,1923,1542,2
-1090.3773892902934,-69.82748996166045,15.237050578454694,253705.15652620213,100828.62073229419,82309.65180682778,12,1919,1539,2
-1037.8662418283604,-77.58954572613898,9.087970169070825,252476.06467480486,102507.18503868423,86712.28293749582,16,1943,1529,2
-983.9018677066466,-83.58281139253963,4.148531062921899,251419.67344203338,104350.2792100221,91808.80667658604,16,1936,1510,2
-928.8417518040106,-87.68189139064968,0.46170542652329755,250607.797524679,106321.18276226745,97595.34024120521,14,1939,1510,2
-873.0785119897824,-89.85744232365958,-1.97856448846308,250097.9586355481,108381.61310542618,104060.3646990756,11,1988,1478,2
-817.0335511069417,-90.15363731073147,-3.2231488154157004,249929.7450570279,110497.01121421291,111184.17104703562,6,2010,1456,2
-761.1527574885831,-88.66647625594882,-3.352288379299239,250124.03124659706,112640.28750584782,118939.24471380992,4,2012,1451,2
-705.9000810527892,-85.52158277916723,-2.4512623890074288,250684.4992649391,114793.82874720871,127291.78077361156,0,2011,1452,2
-651.7494390381415,-80.85346434368503,-0.5870575970719858,251600.0613562005,116949.6956724793,136203.45585002826,0,2010,1455,2
-599.1754017522404,-74.78892853225469,2.2020352960248397,252847.73845228384,119107.43944556615,145632.98722410807,0,2010,1453,2
-548.6389164505662,-67.43207144623707,5.900872291332113,254396.1508235764,121269.96175557775,155537.95106126356,0,2010,1452,2
-500.57185156349084,-58.85284755581787,10.50209401200884,256208.69577772758,123439.35562331082,165876.32020502005,0,2008,1455,2
-455.3640929840946,-49.08614797976281,15.988774015448389,258245.5205076489,125614.45153284994,176607.2045366958,0,2005,1458,2
-413.35031671780035,-38.14386236245266,22.319552317411375,260464.74730614029,127790.1825624544,187691.43844339362,0,2006,1456,2
-374.80150993989207,-26.035658395141013,29.419151020580582,262823.25880047947,129958.16670893227,199091.97323130706,0,2006,1455,2
-339.93013922829607,-12.79390911180281,37.17544662481181,265277.00010979763,132108.27316265466,210773.77706369836,1,2008,1456,2
-308.90588182472777,1.500744275127912,45.441642844944745,267781.1826312311,134230.98839755324,222703.64746656522,3,2010,1453,2
-281.8715778323308,16.70203934356672,54.04172026132759,270290.73386196845,136319.6534223521,234849.813907571,2,2010,1454,2
-258.9537559835389,32.597509516846024,62.77897946477169,272761.46413185267,138371.77368009364,247181.15719434325,3,2010,1455,2
-240.26790206551559,48.922399966822795,71.44770109661947,275152.3454129668,140389.533864163,259666.45155170356,3,2010,1453,2
-225.91975430019508,65.37809923510996,79.84547361464867,277428.15325985756,142379.66995630914,272273.60008583975,1,2009,1455,2
-216.00265435288185,81.65076363433724,87.78718203337667,279561.71731815964,144352.62303629276,284968.99461393914,0,2008,1455,2
-210.59186872095842,97.43136109907451,95.12355100922387,281535.88449637906,146321.15062602347,297717.50485372875,0,2009,1451,2
-209.73946232315382,112.43195171053512,101.75753269510115,283344.7550657544,148298.84636221174,310482.6344096387,0,2004,1456,2
-213.47150262571643,126.3934365004424,107.64898421793895,284993.42418367724,150298.8561438384,323226.5015459419,0,2008,1454,2
-221.78570921917148,139.0881152890666,112.80808346191054,286496.4564323784,152332.77439201612,335910.1717424677,0,2006,1454,2
-234.64900801849043,150.31981303326288,117.28460116113811,287876.0134298601,154409.82996444067,348494.08814716927,0,2008,1454,2
-251.99646344914677,159.92177070513665,121.15798160226424,289160.18310050806,156536.49658894862,360938.0763786023,0,2006,1452,2
-273.73156904306217,167.7540431451213,124.529226392125,290381.45331782685,158716.4077909994,373201.15802271914,0,2006,1455,2
-299.72749531354174,173.70295671553228,127.51465885462572,291575.0380181895,160950.54030437354,385241.6413861439,0,2005,1455,2
-329.8296099694706,177.68323244611938,130.24161502720517,292776.90070060745,163237.71251832214,397017.7250559663,0,2007,1456,2
-363.8579050777181,179.640000829971,132.84599663999325,294021.82241239416,165575.12731360513,408488.04511807015,0,2006,1454,2
-401.60905612595354,179.54700462825332,135.4710298576198,295341.7473089768,167958.74531103563,419611.8525342297,0,2005,1455,2
-442.8599452319609,177.40090791753,138.2653131857871,296764.156993242,170383.59968485966,430349.36439852807,0,2006,1455,2
-487.37096470150976,173.21530543191426,141.37909324444726,298310.5796879058,172843.9929552257,440662.0588392319,0,2008,1453,2
-534.8872473640922,167.016481825715,144.95857632833568,299995.44991459645,175333.47346534682,450512.58705010207,0,2006,1454,2
-585.139642012764,158.84019548013578,149.13797643389364,301825.11503977183,177844.7356765724,459864.80243043357,0,2008,1454,2
-637.8450332646847,148.72940124405915,154.03145143046007,303796.9411889751,180369.53753819896,468683.8557656154,0,2008,1454,2
-692.7054208654231,136.7323825855144,159.7280856880053,305898.7405403555,182898.77400750766,476936.18428090547,0,2007,1452,2
-749.4080950334396,122.8994768563901,166.28998895803974,308108.5864353331,185422.88579346752,484589.75887490937,0,2008,1453,2
-807.6265834229669,107.27845061579771,173.751845981555,310394.9322401298,187932.38245117944,491614.369431162,0,2007,1454,2
-867.0227980450445,89.90891634669234,182.12139484790868,312717.2019681505,190418.21314724098,497981.6811319837,0,2008,1456,2
-927.2529418996796,70.81580770697322,191.38122824548844,315027.05757077556,192872.01567122067,503665.3852125846,0,2005,1457,2
-987.972682006922,50.004823978319706,201.4916346187271,317269.9629770725,195286.1417727057,508641.2976994751,0,2008,1455,2
-1048.8363203578906,27.4622619761444,212.39517879968614,319386.92618850904,197653.2961216109,512887.0898582844,0,2006,1456,2
-1109.4930220163105,3.1580695156144483,224.0247035525763,321316.79196793196,199965.90515126294,516381.907898789,0,2009,1454,2
-1169.583133433919,-22.948640038887383,236.31239391006415,322998.59126937395,202215.43743613383,519106.0784144215,0,2009,1453,2
-1228.735483152561,-50.90053530374492,249.1962361853531,324373.44274035905,204391.77617846115,521040.90730778326,0,2010,1455,2
