AccX (g),AccY (g),AccZ (g),GyroX (deg/s),GyroY (deg/s),GyroZ (deg/s),Heel ADC0,MidFoot ADC1,Toe ADC2,LABEL
-1020.4895944689837,-710.3502474631376,380.97675120629305,324371.33935671754,117639.38609182669,169105.54386499056,0,1974,1478,4
-1040.2726945421475,-601.6333649936403,362.80420208450283,311908.7474473464,115042.65131763917,165013.5672069436,45,1979,1471,4
-1058.826021267847,-498.81840978293536,344.4760704316989,299696.7257310368,112566.49178438117,160938.69849308563,74,2010,1450,4
-1075.9601924375534,-402.4705714512573,325.84382424329186,287834.2412008899,110230.88677955116,156917.18783176682,203,2010,1450,4
-1091.4832974602382,-313.1150403758755,306.78105839183496,276419.77675008477,108053.79422568674,152982.8326150661,340,2008,1449,4
-1105.2043698960485,-231.2567455644093,287.2033632052326,265549.819748302,106050.96288238667,149165.9027367714,744,2009,1450,4
-1116.9406990830335,-157.39179616874955,267.08549618822207,255316.6642824299,104235.652998371,145492.0367293891,1337,2009,1453,4
-1126.530279392456,-91.98387636823156,246.46721149198024,245805.86412617876,102618.06732388944,141981.3955580029,1879,2010,1450,4
-1133.8545087336277,-35.38910372834138,225.44595800516822,237092.73260969765,101204.24229188006,138648.02743674663,2275,2011,1454,4
-1138.862828239294,12.244567904975447,204.15849999007804,229238.90834492032,99994.6861875485,135499.80486624464,2440,2009,1449,4
-1141.5805300120257,51.06869944895798,182.75081215194933,222290.351910814,98983.31324677185,132539.77876614395,2600,2010,1452,4
-1142.0958338093412,81.59159294203752,161.34414840144615,216276.82120860188,98157.1940293928,129769.3253286861,2670,2010,1451,4
-1140.5441945014059,104.6574573961025,140.02437951369618,211212.820611648,97497.73699498692,127192.18448874401,2650,2009,1454,4
-1137.1122737258781,121.30310864836893,118.87681129575917,207099.1773090778,96983.7328825281,124817.65135981052,2654,2011,1450,4
-1132.0576371846769,132.5363231934307,98.04443889599291,203923.24621830246,96595.3099186521,122660.53404891757,2611,2009,1449,4
-1125.7114702772865,139.18289546948657,77.75546078185702,201657.26367772976,96316.23980821134,120736.44702867563,2570,2014,1452,4
-1118.4497982365883,141.87944431184806,58.303297969423916,200257.13489807348,96133.49132656804,119055.48047116458,2523,2013,1453,4
-1110.6488864720209,141.14768028583435,40.00532442187983,199664.30604694414,96035.42174274479,117619.00456823151,2492,2012,1453,4
-1102.6408771486458,137.47136548522695,23.15888542313487,199810.51118027876,96010.02269904672,116420.51975750354,2472,2013,1453,4
-1094.6842185671026,131.33441185576268,8.007419317972964,200622.55416702345,96044.03308518646,115448.45617950476,2494,2010,1453,4
-1086.9593552372273,123.20824283323877,-5.271502835469017,202025.56043462935,96123.39311786306,114689.07595930733,2517,2008,1450,4
-1079.5841349209654,113.51313620387705,-16.56000564369862,203945.48276988982,96234.71608683316,114128.7028874033,2608,2011,1450,4
-1072.6344205831617,102.59131086673207,-25.787679739553496,206311.1794058746,96366.70183937546,113754.89091721238,2675,2010,1450,4
-1066.158554074361,90.71323743099026,-32.92511497001118,209055.75346136588,96510.44869604407,113556.47898022176,2692,2010,1449,4
-1060.182882558695,78.11069950083065,-37.9899192628893,212117.33820493898,96658.57200454031,113523.09122536016,2748,2016,1450,4
-1054.7111748653285,65.01173735298221,-41.06026210852043,215439.26832977298,96804.01898322358,113644.72730616001,2837,2017,1451,4
-1049.7223400186867,51.65752696656447,-42.2836076550578,218969.33864028577,96939.6050551342,113911.73803187793,2891,2016,1452,4
-1045.1702895632934,38.2985867616309,-41.873042479863656,222658.31231965995,97058.56957597805,114315.12760125888,2958,2018,1451,4
-1040.9883043949358,25.178413709159184,-40.09284026653941,226458.27019556134,97155.62888172324,114846.91436297211,3032,2012,1451,4
-1037.1003252313758,12.511552055038392,-37.23599047903629,230321.44404012442,97227.87768565504,115500.3064797583,3099,2014,1449,4
-1033.4375063817072,0.46121237991632313,-33.595685102097804,234199.8416137314,97275.227104071,116269.60514764802,3156,2011,1451,4
-1029.950984075281,-10.874191233205638,-29.440690731315634,238045.5901070164,97300.22242361892,117149.8932900074,3156,2016,1454,4
-1026.6138175787728,-21.458925749932597,-25.00506833188274,241812.13212438417,97307.08599779045,118136.6349208119,3130,2017,1454,4
-1023.4151389084697,-31.306912182386075,-20.491086432385114,245456.36980027054,97300.26502779528,119225.2886599855,3121,2013,1452,4
-1020.3542018925335,-40.4676625840804,-16.076026624919137,248940.88709272817,97283.39739536651,120410.99894626082,3058,2012,1453,4
-1017.4382158894051,-49.01558401488172,-11.91231483450359,252235.60801859276,97259.21198074539,121688.37156269937,2974,2016,1449,4
-1014.6830809869356,-57.04005625137736,-8.117914821903247,255319.23183886832,97229.91454127771,123051.30176665253,2928,2018,1452,4
-1012.1144125196955,-64.63409961150936,-4.76462326952569,258180.2544205729,97197.47120691696,124492.84167269176,2835,2012,1451,4
-1009.7653840569037,-71.87963362955017,-1.8733190816827285,260816.8993727387,97163.58315169803,126005.0781958239,2749,2012,1451,4
-1007.6693219483319,-78.82755448832053,0.579148999451784,263235.65990408906,97129.4433916387,127579.01768794736,2689,2027,1455,4
-1005.8500037271133,-85.47896141462321,2.6429812210522448,265448.66046092747,97095.51341177497,129204.50782468184,2602,2023,1453,4
-1004.3152234211585,-91.77767078258196,4.377238171698555,267470.75940085,97061.49626480864,130870.18554433758,2530,2018,1452,4
-1003.056350395251,-97.61989555207444,5.837129544709177,269317.0119649418,97026.52897798557,132563.55228583893,2394,2018,1452,4
-1002.0525681381197,-102.8792803560103,7.065617708551127,271000.32759260794,96989.5027013451,134271.32115226772,2271,2016,1451,4
-1001.2765010930951,-107.435222979829,8.088106905958393,272529.617304411,96949.34793055442,135979.89246318434,2201,2015,1452,4
-1000.6989575335571,-111.19536268286106,8.91103946579582,273909.1016368062,96905.15568917962,137675.82625553943,2081,2016,1451,4
-1000.2923252806194,-114.11319590261618,9.52368420520035,275138.79297079396,96856.13982644494,139346.37316539648,1967,2018,1453,4
-1000.032211143334,-116.19862832076048,9.901575901543413,276215.6080254341,96801.52966870002,140979.90321313127,1959,2020,1456,4
-999.8973833698353,-117.515621835498,10.0117416382743,277134.8700507447,96740.47071742847,142566.07491672007,1800,2029,1454,4
-999.8692941419006,-118.16805911071377,9.820548723026223,277892.22534359846,96671.96260674264,144095.87723777042,1721,2034,1454,4
-999.9321639907895,-118.28208691762629,9.30230616666988,278485.3718484667,96594.84907551322,145561.60844740996,1595,2031,1453,4
-1000.0735249991695,-117.990353185777,8.446457250201817,278914.93456815573,96507.88502985338,146956.78214387197,1416,2042,1453,4
-1000.2847307777314,-117.41773758444307,7.263327749964548,279184.6020435652,96409.8694366826,148276.03986223097,1356,2032,1455,4
-1000.5610074362417,-116.67078444265195,5.7874943500246365,279300.830847142,96299.77702923726,149515.0826660641,1281,2029,1455,4
-1000.9006323867575,-115.83480183051078,4.076842886115873,279272.1583103789,96176.8307254686,150670.6071459632,1231,2047,1458,4
-1001.3032554768936,-114.97776088584547,2.2070949176283157,279108.1866362245,96040.51217321922,151740.29081045234,1091,2053,1453,4
-1001.7683402808418,-114.1569203188149,0.2641336067391328,278818.63286272174,95890.54385514402,152722.79973270308,1113,2068,1453,4
-1002.294796780681,-113.4254297997064,-1.664052421439427,278412.8444781979,95726.86792750194,153617.76505210117,1022,2080,1454,4
-1002.8816047814803,-112.83825666362877,-3.4957310592244233,277899.7833307085,95549.6118006044,154425.741015621,927,2064,1454,4
-1003.5281698129551,-112.45607178716818,-5.162519390161596,277288.3057847105,95359.01402352893,155148.1336380832,841,2074,1454,4
-1004.2332068336611,-112.34523498815122,-6.614045713846518,276587.63599351415,95155.27856499972,155787.08183741255,847,2094,1452,4
-1004.9920984350828,-112.5743221254953,-7.821252673177142,275807.9344995375,94938.3801465577,156345.32355554786,768,2113,1459,4
-1005.7942141032604,-113.20932203813965,-8.777896748795097,274960.7616577263,94707.96493454989,156826.0775736289,718,2098,1458,4
-1006.6219991107351,-114.30818529252888,-9.49781368054107,274059.21482598275,94463.49962476992,157232.96058227954,711,2092,1458,4
-1007.4525047825512,-115.91452376443353,-10.007335626551058,273117.7049697351,94204.64438695204,157569.95593548633,644,2100,1468,4
-1008.2605203275177,-118.0526046855531,-10.336378790111581,272151.5395306662,93931.62810190482,157841.41624781795,579,2041,1520,4
-1009.02213272522,-120.72653541145142,-10.511784646986658,271176.37250916247,93645.408981355,158052.07041280647,525,2057,1519,4
-1009.717996768968,-123.92366057490386,-10.552708267633124,270207.49255564465,93347.59474694937,158207.0225962678,409,2057,1522,4
-1010.3352892081385,-127.61937241809902,-10.467887830227284,269259.19012708444,93040.24070360113,158311.72482831392,365,2077,1507,4
-1010.8678020416482,-131.78114096854102,-10.256264126028237,268344.4232677292,92725.60664584706,158371.89237031326,291,2101,1521,4
-1011.3151415908208,-136.37191615916785,-9.910158263461751,267474.70003005763,92405.8998413409,158393.35392403306,294,2096,1520,4
-1011.6821459199151,-141.35262736114802,-9.418236269302627,266660.0937257573,92083.09221927488,158381.8792783233,310,2111,1550,4
-1011.9785207510332,-146.68256974590759,-8.7673381848625,265909.3264627947,91758.85744343615,158343.01221392438,186,2082,1575,4
-1012.2181573807984,-152.31788661460044,-7.943910195040811,265229.82509026903,91434.55061067807,158281.89574784384,143,2023,1587,4
-1012.4183180162587,-158.20937482826676,-6.935189716904944,264627.74275024305,91111.18338942171,158203.11688963982,115,2037,1618,4
-1012.5994219478165,-164.30054669712928,-5.730266710521688,264107.9324884919,90789.40132557886,158110.59298478445,41,2032,1630,4
-1012.7853485602537,-170.526534733264,-4.321586102160108,263673.82641320257,90469.45394466036,158007.46749553762,68,2040,1632,4
-1013.0034227579162,-176.81423971759403,-2.7065855860706747,263327.29858819436,90151.16641760623,157896.010428739,80,2014,1669,4
-1013.2836760692217,-183.08433839205452,-0.8882519959104876,263068.65617990546,89833.93148225978,157777.52254704863,5,1986,1701,4
-1013.657792665543,-189.25508589532652,1.125978922377861,262896.78699957294,89516.71816469204,157652.21642080802,42,1972,1711,4
-1014.1584568933009,-195.24581431936411,3.326123065695887,262809.3715081786,89198.09416299578,157519.09653205567,34,1939,1727,4
-1014.8193231879602,-200.97835061236523,5.701212318591558,262803.08127720765,88876.24591325157,157375.87681979302,43,1919,1769,4
-1015.6752265255149,-206.37705371175102,8.240404172328313,262873.76041814167,88548.97648091507,157218.93637051573,48,1826,1819,4
-1016.7622379461137,-211.3689736471531,10.934067244970674,263016.5728555913,88213.70114495512,157043.3195987119,38,1821,1871,4
-1018.1174773580007,-215.88480478028362,13.774724422230944,263226.07529953995,87867.46599277655,156842.78728882645,21,1801,1907,4
-1019.7787964019104,-219.8602470838691,16.757199599349835,263496.2251512267,87506.98912707435,156609.90478841928,12,1691,2009,4
-1021.7846581434318,-223.23800435711362,19.87742072719722,263820.36483056,87128.72979851275,156336.1790011724,8,1633,2061,4
-1024.17467405686,-225.97177167487706,23.129786687820204,264191.2238894904,86728.99367012245,156012.26427231214,4,1505,2162,4
-1026.9904285449854,-228.03196955598818,26.502643982664576,264600.9820254655,86304.04214809011,155628.1935134387,11,1428,2214,4
-1030.274748350408,-229.4107708766193,29.97087086397501,265041.5512716219,85850.16693189843,155173.57609979887,37,1386,2258,4
-1034.067895255104,-230.12306609321212,33.48791499169806,265505.2523751884,85363.77088604133,154637.7538768966,4,1327,2295,4
-1038.4035382024458,-230.2025651051863,36.98462713527804,265985.7103775775,84841.6099738621,154009.96550592617,23,1217,2381,4
-1043.3098114399004,-229.6963932184124,40.380068546316295,266478.6061791196,84281.28601080975,153279.6364377736,37,1117,2462,4
-1048.8138984208952,-228.66032993619896,43.59825455938849,266982.04595350375,83681.68981036184,152436.8096950259,55,1040,2526,4
-1054.9440704643453,-227.15456050712024,46.57805162707213,267496.4970465514,83042.98894871862,151472.53086525778,15,1004,2548,4
-1061.7288528336844,-225.24014293494517,49.27213307857229,268024.5163492356,82366.20606491361,150379.05255130513,22,973,2607,4
-1069.1955747366865,-222.97603067627276,51.64151307635906,268570.4727682378,81652.74030248953,149149.93982957336,40,880,2638,4
-1077.3684177777552,-220.4168792391152,53.65208204971713,269140.23518935486,80904.15389230463,147780.2060668053,31,869,2663,4
-1086.2670014336597,-217.6120392984776,55.27491946143969,269740.796958023,80122.3067888272,146266.45958818216,35,830,2698,4
-1095.9067187763626,-214.6050419731571,56.48925325286474,270379.8974963913,79309.61525416108,144606.97134884985,32,757,2740,4
-1106.2998141508417,-211.43244120793713,57.28572905309069,271065.7232037121,78469.18114299115,142801.67254796633,25,707,2772,4
-1117.455686621103,-208.12058499833046,57.667770946086016,271806.62676175614,77604.67210224055,140852.05910118957,57,672,2803,4
-1129.3798542591032,-204.6804016855608,57.65041983405072,272610.7143879848,76719.97641228227,138760.94863041397,43,615,2863,4
-1142.0718049597476,-201.10359663162433,57.25770639122346,273485.3107511539,75818.84913215955,136532.2483168411,27,559,2857,4
-1155.5227636586278,-197.36356402440697,56.51980069432609,274436.3515991668,74904.70641705401,134170.83497024892,32,522,2905,4
-1169.7140188956828,-193.42039967230522,55.470616444098994,275467.6983782684,73980.50094477228,131682.41529404398,25,462,2921,4
-1184.615181576627,-189.22651245619014,54.14578324784399,276580.524561522,73048.620113565,129073.39294801709,41,404,2948,4
-1200.1821793158565,-184.7310217011187,52.580297159384266,277772.9636418277,72110.81057997355,126350.81543370958,51,424,2946,4
-1216.3558498774037,-179.8843826406916,50.80696663639961,279039.97592362616,71168.17689492412,123522.31437299922,19,420,2944,4
-1233.0610362057412,-174.64359844916444,48.85665063917062,280373.29934156814,70221.26419914403,120596.05433064379,21,388,2976,4
-1250.2049909513726,-168.97624837363406,46.757390143105965,281761.5409217733,69270.02393510097,117580.6539184261,48,374,2975,4
-1267.6745444905232,-162.86275169990097,44.5314760439796,283190.5104619247,68313.60549905687,114484.98538887335,30,304,3002,4
-1285.332377905717,-156.29770427171766,42.1935000867837,284643.62545482605,67350.26603218654,111318.05586813728,46,274,3016,4
-1303.013496557722,-149.29160357791775,39.74934409012579,286102.1770173406,66377.56375630718,108089.07653716025,24,247,3020,4
-1320.5228979315293,-141.87423518156675,37.194886197093005,287545.52337597025,65392.698146807925,104807.5165585002,50,220,3011,4
-1337.6346969331873,-134.09973126729096,34.5168863096448,288951.4808495001,64392.81815893286,101483.13042562839,68,225,3021,4
-1354.0927505003365,-126.05137998931295,31.69713587257977,290297.06828020833,63375.21122626979,98126.07552990115,96,244,3003,4
-1369.6125888708334,-117.8436165200503,28.716862237584657,291559.35489066434,62337.38841494957,94747.1178432197,104,207,3016,4
-1383.8866895005901,-109.6195712599752,25.560025522887564,292716.17206471437,61277.22348672008,91357.91855193724,136,230,2979,4
-1396.5955101780082,-101.54425805858003,22.217640230305143,293746.7049327424,60193.3780577804,87971.37959903642,169,209,2975,4
-1407.4202360976956,-93.7954207872409,18.694088484093776,294631.77491832385,59085.98259278375,84602.04444845146,124,312,2922,4
-1416.0521404439717,-86.55268665515307,15.01380626685948,295353.53275085567,57957.17358002763,81266.56161348782,194,339,2891,4
-1422.199107716955,-79.98553824028629,11.225824169887817,295894.64454850456,56811.16911976847,77984.1461891667,180,454,2791,4
-1425.589331681759,-74.24558264931596,7.402582506319876,296237.452838253,55654.00330783529,74777.01724484703,296,537,2745,4
-1425.9703624944148,-69.468142762224,3.6287799989502583,296363.7404757148,54493.333427851,71670.8523244447,239,671,2628,4
-1423.1051945876181,-65.78100932337682,-0.01848647830105929,296255.6450275164,53338.830118391634,68695.21112553084,273,749,2577,4
-1416.7707512130294,-63.31276008473193,-3.487490115490858,295897.7594965607,52203.40375565869,65883.83311638903,277,863,2441,4
-1406.7646802421018,-62.19230417314298,-6.757792160164247,295279.6498699487,51104.7766244356,63274.795257365964,238,959,2366,4
-1392.922543162375,-62.533787290686966,-9.833690928272981,294398.3131714654,50066.59433916393,60910.34778364023,251,1083,2257,4
-1375.1408067374116,-64.40768854503858,-12.729517649206386,293260.71505034255,49118.69353629221,58836.196140884895,222,1217,2161,4
-1353.3965131207983,-67.81039056009882,-15.454383832293848,291885.84081744077,48296.47297820084,57100.48625535831,209,1345,2044,4
-1327.7545718488611,-72.64751280757356,-18.002911761249695,290305.2276029064,47639.13142857774,55752.68848484191,171,1450,1939,4
-1298.3603082819595,-78.73545533030507,-20.351411662348443,288561.77223239554,47186.76604354563,54842.239101810424,152,1529,1871,4
-1265.4251673319593,-85.81629990093413,-22.457311576921963,286707.4885545114,46977.37793131539,54417.21631174944,139,1603,1803,4
-1229.214110803368,-93.58371000529418,-24.262233307635643,284800.4590290595,47044.54789959852,54523.22262847338,135,1678,1737,4
-1190.0365520276976,-101.71808821302047,-25.69659463413166,282900.88659891265,47415.39569056332,55202.15298786682,130,1727,1694,4
-1148.2414279893628,-109.91907107943813,-26.68212182899426,281067.3940406235,48108.86326754827,56490.92469680788,88,1747,1683,4
-1104.2137862050827,-117.92581441510343,-27.134388928379174,279354.4773921195,49134.807309834876,58420.40804605405,57,1775,1653,4
-1058.3677113879519,-125.52839760907511,-26.969630664302766,277810.5201475403,50493.79456863872,61014.476712282485,54,1854,1587,4
-1011.1378663565955,-132.57278461093995,-26.11453444933185,276476.25619292987,52177.35739691592,64289.259728414785,89,1915,1531,4
-962.9723439747555,-138.95764564515372,-24.515560975262293,275384.0828922085,54169.02511257363,68252.8814185722,43,1929,1519,4
-914.3241004685522,-144.62463931607175,-22.145880347900206,274557.97089697135,56446.40397948842,72905.6985351693,28,1997,1465,4
-865.6431776880419,-149.5470240815515,-19.00705619587803,274013.64984297246,58983.59223061323,78240.65095744868,19,2016,1455,4
-817.3724294740102,-153.71916980149902,-15.122430996846346,273759.1123041461,61753.27373614934,84243.58572513657,24,2008,1457,4
-769.9430282089301,-157.1458918346693,-10.523993516410394,273795.4531841163,64728.563099683575,90893.73089803127,6,2014,1451,4
-723.7695902379577,-159.83258731091578,-5.240984781371896,274117.7532143798,67884.21944100568,98164.07790258186,13,2013,1452,4
-679.2462072261116,-161.77751234209168,0.7021188489712532,274715.73027590086,71196.81773180843,106021.63064089857,1,2013,1451,4
-636.739707248125,-162.9642720595746,7.2785862453912475,275574.1883243192,74644.28248502576,114427.96075140727,8,2010,1454,4
-596.5807045133694,-163.3552609622984,14.451132994184135,276673.33397390513,78205.33963565016,123339.94057584612,31,2008,1455,4
-559.0559479290346,-162.89279164296244,22.170985281731788,277989.01337415073,81859.3759164068,132710.71280389128,32,2010,1452,4
-524.4021930265015,-161.51332832908267,30.384648949242457,279492.869630667,85586.95676192152,142491.315703817,0,2008,1452,4
-492.80480300746564,-159.16974886567712,39.03987906471209,281152.32639204885,89370.55326897232,152632.1475326308,0,2009,1451,4
-464.4046563277004,-155.85143179175867,48.08420730202615,282930.64007285883,93195.0765262523,163083.51975850997,0,2010,1451,4
-439.3090765739708,-151.5971695717575,57.45816706949898,284787.423603379,97048.35048573175,173795.83443289614,0,2009,1454,4
-417.60000604684484,-146.49855269465837,67.09000236758492,286679.5696245466,100921.47058434549,184719.5722734218,24,2010,1453,4
-399.33785963652593,-140.691071555738,76.89649232702558,288562.5376355462,104808.93963734654,195805.2283525243,3,2008,1451,4
-384.5633168820936,-134.33488540059594,86.78941137597437,290392.16131705366,108708.6943996214,207003.77622774153,4,2005,1455,4
-373.29916767528357,-127.59477657302847,96.68327788328537,292126.4894013166,112621.85107156387,218267.30395904067,0,2007,1452,4
-365.5526980308053,-120.6275179228076,106.50205316652948,293727.2448249709,116551.89073032312,229549.542904128,8,2008,1451,4
-361.3180217413018,-113.5771013760051,116.18543766426124,295161.1145895158,120503.39158008737,240806.80765601658,0,2005,1454,4
-360.5777402869888,-106.5766165087693,125.69294581416541,296400.6975534166,124480.67544406994,251998.91858977798,19,2006,1456,4
-363.3027406059729,-99.75589128808251,135.00345609955113,297424.89205429814,128486.64179594537,263089.5830575614,0,2008,1451,4
-369.4487555732411,-93.250769114607,144.11203889356696,298219.13447860535,132521.84408752027,274046.62260682986,9,2008,1452,4
-378.9511128551984,-87.20818324115395,153.02695863967688,298775.78331075783,136583.8036200893,284841.8379524909,17,2008,1450,4
-391.72129677734983,-81.78378595411351,161.76678480846488,299094.51797344006,140666.64146629162,295450.2703007782,15,2008,1454,4
-407.64638164187403,-77.13364084791738,170.35585642284929,299182.5260793743,144761.0109532421,305849.45693347114,2,2005,1451,4
-426.5893875704453,-73.4047250374018,178.81797617346325,299054.3216941829,148854.05109275228,316018.84810417396,5,2005,1453,4
-448.3896860680408,-70.72647136438597,187.1697218739614,298731.1807069017,152929.3388683796,325939.29666325974,3,2008,1452,4
-472.8639799382802,-69.20239629267473,195.41500413476032,298240.31631532515,156967.16434268173,335592.8223986851,4,2005,1452,4
-499.80740990590283,-68.90359396049371,203.5428218449861,297614.00823769084,160945.08473520822,344962.3789839477,6,2007,1451,4
-528.9955366210505,-69.86691303919166,211.5295000540882,296888.5487052147,164838.70329150578,354031.5095201842,5,2006,1452,4
-560.1887544877764,-72.09689102322741,219.3441405685259,296102.66905094514,168622.83135407424,362784.31372034666,5,2008,1452,4
-593.1369090635286,-75.56853278936633,226.95363499548574,295295.72675698384,172272.6275832638,371205.51781963615,4,2008,1451,4
-627.5825222101132,-80.22962019209932,234.3256398291762,294505.82947006455,175764.45347369157,379280.3751249612,35,2006,1453,4
-663.2646060164113,-86.00330749525625,241.43134103684196,293767.6239577353,179076.82312702326,386994.7071370673,3,2007,1454,4
-699.9228123259234,-92.7916427538507,248.24849672210206,293110.17737009993,182191.33132788516,394334.9768425882,4,2006,1452,4
-737.3023080124078,-100.48132980533192,254.76347852293813,292555.4313820423,185093.24134804783,401288.29808499885,13,2006,1453,4
-775.1616401656742,-108.95307658512858,260.97196821792903,292116.9884076121,187771.8769391947,407842.72949495836,0,2005,1453,4
-813.2799633997697,-118.09219685379645,266.8782856105307,291799.29584143276,190220.75533455444,413987.6092872072,0,2006,1453,4
-851.4595301397122,-127.79896359086858,272.49326836404435,291597.70389900054,192437.2072305474,419713.58391480934,3,2006,1454,4
-889.5257266176026,-137.99979511536162,277.8312921338753,291499.45767901547,194421.57186104442,425012.5537532177,5,2006,1455,4
-927.3262097056407,-148.65645597117006,282.9073661115911,291485.2119927024,196176.24942579414,429877.4939932011,0,2008,1455,4
-964.7284591617766,-159.76980663355465,287.73471622146104,291531.0010587805,197704.71960738627,434301.9271469298,1,2006,1456,4
-1001.6163136770588,-171.37900677972422,292.3228396259922,291610.85350984393,199010.49718568617,438279.17851908813,0,2006,1454,4
-1037.88523834622,-183.55761786183547,296.67614840229567,291699.4282762135,200096.18037378057,441801.5814845545,0,2006,1453,4
-1073.4359339410296,-196.40602135444553,300.79332098671364,291774.0731247748,200962.796212098,444859.749834778,0,2006,1453,4
-1108.1677435119555,-210.04008418216122,304.6674274490188,291816.5160479444,201609.44606854845,447442.05411213555,0,2006,1453,4
-1141.9734044555953,-224.57899626403005,308.2867619289351,291814.0627095889,202033.2283576575,449534.30399886187,0,2006,1455,4
-1174.73670771944,-240.13430492830213,311.63671831476586,291759.8639713533,202229.54548399508,451119.6428064575,0,2006,1455,4
-1206.3337433518543,-256.79923827446675,314.7033005154479,291652.35343579605,202192.82766132004,452178.7037312803,0,2008,1455,4
-1236.634892255791,-274.638549093061,317.47758732218125,291494.28671040403,201917.38214767099,452689.88665893994,0,2006,1456,3
-1265.5055555920585,-293.678940785968,319.96023064999554,291291.4770245225,201398.07900100923,452629.675054701,0,2006,1454,3
-1292.8073631031557,-313.899152100645,322.1653326066619,291051.1088684668,200630.8564819279,451973.1399877961,0,2006,1455,3
-1318.400263905785,-335.22206558707774,324.12177305100255,290780.02614195086,199613.01713361184,450694.6144915952,0,2006,1455,3
-1342.1455291667764,-357.5132228508297,325.87092687455737,290483.3381144265,198343.28979406666,448768.4413814095,0,2006,1454,3
-1363.9109815281854,-380.5860176398802,327.46317479391917,290163.1511908091,196821.8408495376,446169.8196271074,0,2007,1455,3
-1383.5765392665023,-404.2087755521199,328.95647907371296,289817.5135728336,195050.40512704902,442875.65464170853,0,2007,1455,3
-1401.0383223824626,-428.11189872981674,330.41643788385596,289439.77955391165,193032.39278334254,438865.31766331487,0,2006,1455,3
-1416.2128319024418,-451.9974404172528,331.91378965512433,289018.23956373695,190772.7534589611,434121.4182160476,0,2006,1453,3
-1429.0406083751345,-475.54911783393993,333.5173321545493,288535.98607250955,188277.7133982565,428630.6902947314,0,2008,1452,3
-1439.4879144449533,-498.4399210486831,335.28312545420727,287971.29106023436,185554.58781744918,422384.95910150866,0,2006,1451,3
-1447.5475116612597,-520.3384290025969,337.2424017170149,287298.62018966227,182611.71265734843,415382.11256879003,0,2008,1455,3
-1453.238940288186,-540.912603473447,339.39278973337423,286489.98294248735,179458.57081728967,407627.0570656891,0,2008,1451,3
-1456.6075271673583,-559.8286415116147,341.6954991603713,285516.450235222,176106.03401345198,399132.5149686511,0,2007,1454,3
-1457.7225057883825,-576.7460687452932,344.0764437782486,284349.9507733685,172566.46819506653,389919.503181512,0,2010,1453,3
-1456.6752966627243,-591.3117962821161,346.42904948503013,282965.00913654064,168853.71139715126,380017.71918126673,0,2009,1451,3
-1453.5785090129148,-603.1561064473028,348.6186554986353,281340.00457790337,164983.01418471592,369465.8593246246,0,2008,1451,3
-1448.5659522116962,-611.8929192742438,350.4874869072554,279458.005312892,160970.94983820862,358311.5849507975,3,2007,1451,3
-1441.7932044529623,-617.1252890916768,351.85712100678813,277307.209078253,156835.5578471007,346611.52394068823,15,2012,1451,3
-1433.4358584194,-618.4598680717941,352.5303685772068,274880.8656245392,152596.99987440716,334431.5722993678,5,2009,1451,3
-1423.6826797841397,-615.5326425207572,352.30086812917995,272176.8310199151,148278.62070646125,321847.0651639305,15,2008,1451,3
-1412.7276043327256,-608.0397447272684,350.970420943584,269197.21536984487,143908.09820456067,308942.9270707734,0,2009,1452,3
-1400.7685130092088,-595.7671765200909,348.3640419379595,265948.3807778298,139518.22382475986,295813.73333296756,6,2007,1455,3
-1388.013868017006,-578.6122103155939,344.33887147346985,262441.2150632093,135146.85600338413,282563.0444143404,27,2008,1454,3
-1374.689991241066,-556.5877960153018,338.7890328989103,258691.78243147072,130836.00493026749,269302.27565440757,9,2006,1453,3
-1361.0414426254326,-529.8166220398549,331.64540830857896,254722.60103400404,126629.79514715871,256148.74480833352,3,2005,1453,3
-1347.3238877178899,-498.52982222997383,322.86948503674523,250564.3117023413,122571.06012722687,243221.86188754058,13,2006,1452,3
-1333.79407495778,-463.0735957693792,312.447620584588,246256.88966391698,118697.98770075447,230638.7681959482,11,2005,1452,3
-1320.6964272337093,-423.91447939309637,300.3958557043211,241849.2958519945,115042.47623527984,218510.45698777807,12,2006,1451,3
-1308.2440387835688,-381.6346292364967,286.7747559393099,237397.14276285333,111630.02277025257,206937.40179843368,9,2008,1452,3
-1296.6012027541608,-336.92224736564305,271.70182632905784,232959.4542754911,108480.30298799035,196005.63413141473,5,2005,1452,3
-1285.8747217707898,-290.5700820154172,255.35230123205332,228595.31982690387,105607.93378375146,185784.61848754334,6,2009,1452,3
-1276.1124946440839,-243.48655325571562,237.95007792178055,224360.20455897215,103023.14846615301,176326.04579454203,67,2008,1451,3
-1267.3063175526693,-196.71096597493252,219.7569103079588,220302.8696238155,100732.38398186224,167663.12662985313,255,2009,1451,3
-1259.3965731246885,-151.4122115986637,201.06478270087777,216464.26750726055,98738.73055854242,159810.5142897571,572,2009,1452,3
-1252.274846007993,-108.85481846775266,182.19140836839614,212878.24740653104,97042.0609936321,152764.33751456477,1011,2010,1452,3
-1245.7828977076824,-70.33654874829024,163.4717624494112,209573.17905066756,95638.71150547084,146502.51449994862,1575,2009,1452,3
-1239.7106077879691,-37.077651794570365,145.22361338238144,206573.79314919148,94520.41177384109,140986.1481230213,2087,2009,1454,3
-1233.7945086517652,-10.028213427417722,127.67919333280503,203902.9222370935,93672.3828038274,136162.12619164385,2400,2010,1452,3
-1227.722206916251,10.349515653474134,110.91998975960887,201583.63236801652,93071.68927408812,131966.56693844855,2683,2010,1452,3
-1221.159160276083,24.202153949412356,94.86484481958428,199643.12112385,92687.60050012743,128330.07781768528,2907,2014,1453,3
-1213.8023185115262,32.24213244076209,79.32968714394957,198118.20393887282,92484.58644939313,125186.05427786798,3070,2013,1452,3
-1205.4355798254069,35.56219444135466,64.12857116497912,197058.244526242,92426.66348189746,122479.53364991905,3137,2016,1453,3
-1195.967669615607,35.366170228146125,49.16263694312537,196519.64995639917,92481.46355347865,120171.88461442255,3153,2012,1452,3
-1185.4582940389155,32.68986682884719,34.461611169649785,196551.24683059045,92623.03236230489,118239.3673937337,3103,2010,1453,3
-1174.1241376777145,28.238275441930742,20.17077076294301,197178.74510167667,92832.42948961149,116667.20293139537,3066,2010,1450,3
-1162.2926023224088,22.42695425798888,6.500499936894348,198397.28080368467,93095.96107005766,115441.99224005955,3003,2012,1451,3
-1150.3108494439448,15.551605108218906,-6.331021580138335,200174.01173058499,93402.28832055723,114546.16505322848,2999,2008,1451,3
-1138.4709583971796,7.9242849340399975,-18.133643463382136,202456.91857151024,93740.13870223999,113958.02582340648,2964,2011,1451,3
-1126.9840803575353,-0.10463208970905319,-28.75348093504002,205183.11978000522,94097.44635603923,113655.74095047516,2977,2011,1452,0
-1115.9832463117193,-8.19855511300459,-38.07207656860113,208283.08966437966,94461.81282839902,113620.17632973596,3004,2012,1452,0
-1105.533818932633,-16.086274662544778,-46.0094931792942,211682.86211132837,94821.9762061775,113835.08809039318,3035,2022,1454,0
-1095.6486268873268,-23.58070051798457,-52.52781518643907,215306.50238150457,95169.43463439756,114286.16226485693,3057,2028,1454,0
-1086.3097205144147,-30.572292432438374,-57.631514151358516,219079.53466925863,95499.10780556826,114959.9288969648,3018,2029,1453,0
-1077.492647254021,-37.01011652451626,-61.367096301994316,222933.41559773125,95808.79524337074,115842.72926664207,3034,2028,1455,0
-1069.1821499350888,-42.88088789332634,-63.823530511014944,226809.295441853,96098.09458653172,116919.84490684634,3045,2029,1454,0
-1061.3747799285763,-48.193763905357244,-65.13022036085465,230659.35921879514,96367.51957745985,118175.05966134559,3091,2032,1455,0
-1054.0739705310789,-52.96998228545771,-65.44837814210442,234446.27691425502,96618.10512242145,119590.66944250022,3076,2022,1453,0
-1047.2831945458424,-57.23470584582446,-64.95656384665392,238141.9154371341,96851.4000211329,121147.70935083921,3077,2028,1456,0
-1040.9991338416608,-61.011391474519094,-63.83439916248427,241725.80677340634,97069.49860437016,122826.35787979995,3053,2031,1454,0
-1035.2071099575737,-64.31934796588702,-62.24913232574598,245183.5357507112,97274.74645958198,124606.59416838111,3027,2034,1456,0
-1029.8819765379003,-67.17419679497907,-60.3504119095259,248505.26215245517,97469.17672379679,126468.81379115634,2993,2028,1454,0
-1024.993753727468,-69.589062894758,-58.27314057309018,251684.54677902002,97654.0948574782,128394.03923543503,2943,2021,1454,0
-1020.5140198699254,-71.57487208918799,-56.14174965719861,254717.45417038223,97830.07716752305,130363.81004850012,2882,2028,1454,0
-1016.4197461753653,-73.14067606840753,-54.07045676926714,257601.9095556413,97997.26029199596,132360.00483999483,2810,2044,1454,0
-1012.693147584509,-74.295274332226,-52.15877014656066,260337.32613597382,98155.6218557585,134364.81699236628,2690,2038,1457,0
-1009.3187060930428,-75.04928758428386,-50.48534846119832,262924.40078525455,98305.08568524152,136360.98775308364,2632,2043,1455,0
-1006.2802489516625,-75.41559203831464,-49.10481405705889,265364.87451979227,98445.46377179101,138332.07536219998,2581,2037,1454,0
-1003.5600533239023,-75.40780440526322,-48.049631705160344,267661.1765931266,98576.31135436108,140262.587973021,2451,2052,1455,0
-1001.139753376307,-75.03832773967632,-47.33503286892521,269816.0282427092,98696.78982614023,142138.08721064436,2307,2047,1457,0
-999.0019423472532,-74.31776273461426,-46.963296467872496,271832.03463441215,98805.62216993012,143945.28369501987,2233,2060,1454,0
-997.131670113816,-73.2573285194678,-46.92578932020433,273711.26589813206,98901.17223234213,145672.1275708107,2095,2062,1454,0
-995.517264167342,-71.8741565569417,-47.20389009774606,275454.8914157824,98981.58809960766,147307.9908067956,1967,2068,1453,0
-994.1501290401494,-70.19672364309103,-47.77028454295162,277062.9409494884,99044.89048126896,148843.85763837612,1904,2062,1454,0
-993.0234329933837,-68.26786276896024,-48.59177372542205,278534.3315201523,99088.9545459167,150272.4312692232,1856,2062,1455,0
-992.1299784702362,-66.14487686330149,-49.633667824750496,279867.25867875834,99111.45285292785,151588.21918243976,1699,2066,1456,0
-991.4603022217726,-63.89722817521369,-50.86350961263301,281059.7534909169,99109.85581559528,152787.55851985232,1627,2069,1456,0
-991.0020510663865,-61.60180465737004,-52.25171154972895,282110.23923666583,99081.55458744291,153868.52133543877,1576,2061,1457,0
-990.7406889262696,-59.33623092388619,-53.76914015608076,283018.13176357787,99024.10669958725,154830.76824438502,1486,2060,1458,0
-990.6608817294674,-57.17279179478297,-55.38366235877219,283784.3071067095,98935.493504914,155675.39142001382,1375,2083,1455,0
-990.7477197376978,-55.17484007170973,-57.057748858711484,284411.1979274394,98814.26599767014,156404.72969143567,1281,2084,1455,0
-990.9869772106064,-53.3950040772557,-58.748051998069094,284902.59236447484,98659.56348087237,157022.1686608057,1267,2075,1456,0
-991.3642653110778,-51.87475318352959,-60.40680556369558,285263.3121535413,98471.0646558492,157531.96916413624,1171,2098,1455,0
-991.8638444702555,-50.64568495036093,-61.9846942022618,285498.8203116803,98248.94582429799,157939.16714558803,1102,2095,1458,0
-992.467835727561,-49.73205629422327,-63.434546389501214,285614.7726435934,97993.89875469456,158249.54378893992,1039,2096,1455,0
-993.1559951501556,-49.15340033376235,-64.71445544613636,285616.64152437286,97707.20536202798,158469.612138009,1056,2097,1456,0
-993.9059748613461,-48.927049399909315,-65.78990997404387,285509.5501634887,97390.8111710323,158606.57449625045,1014,2093,1456,0
-994.6938875628385,-49.07112202647388,-66.63583941544866,285298.3578705299,97047.32885755206,158668.22533192794,1035,2096,1458,1
-995.4948981422212,-49.60719342057702,-67.23846142190386,284987.968267386,96679.96653776486,158662.7875805008,972,2104,1455,1
-996.2839009684585,-50.561011985299785,-67.59590537682053,284583.7352184205,96292.44846202488,158598.71792251058,890,2115,1457,1
-997.0366495818206,-51.96082880020113,-67.71729365974181,284091.8674828848,95888.9548653951,158484.50018080053,917,2119,1457,1
-997.7311298367207,-53.83425845274751,-67.62058906123723,283519.8231749292,95474.04244455147,158328.40772451705,917,2127,1457,1
-998.3486460486419,-56.20436164941718,-67.32922001234255,282876.5914370601,95052.54407884441,158138.2852989124,887,2131,1455,1
-998.8745845820713,-59.085305570361854,-66.86789515124113,282172.66828656825,94629.434179145,157921.40287155952,872,2142,1456,1
-999.2988052527124,-62.4789094563212,-66.25931624207428,281419.6905072948,94209.62372940972,157684.35547865383,756,2151,1458,1
-999.6155029836792,-66.37355876262622,-65.52281533383105,280629.9477153662,93797.76361894346,157433.0035488621,686,2165,1458,1
-999.822970298737,-70.74575535455641,-64.6742822356248,279815.9362692203,93398.14663016055,157172.46026395817,643,2169,1458,1
-999.9239312905875,-75.5631145887991,-63.72674896825866,278989.9400024079,93014.67597046468,156907.09190321888,658,2167,1461,1
-999.926541105846,-80.78744848026957,-62.69157417638852,278163.7325941335,92650.84225460135,156640.5099282993,607,2203,1632,1
-999.845367499664,-86.37753993934304,-61.58006393441004,277348.48521975527,92309.66073932938,156375.54825148493,551,2217,1634,1
-999.7013753291366,-92.29101352996307,-60.404776646063574,276554.76685801405,91993.55938103904,156114.2225733958,366,2229,1628,1
-999.5203619840865,-98.48493653018404,-59.17970623331489,275792.5596384108,91704.30261443004,155857.70492368203,410,2225,1631,1
-999.3302946031624,-104.91597593784427,-57.91924719322838,275071.2837101005,91443.01691580212,155606.3478765847,307,2239,1627,1
-999.1590164467505,-111.5405757716674,-56.636420581971834,274399.8027970443,91210.28663123018,155359.74974028347,226,2250,1632,1
-999.0334010598191,-118.31496311991393,-55.34106756394541,273786.41681493574,91006.26215861528,155116.83042220614,246,2271,1637,1
-998.979627054132,-125.194858391719,-54.03843632665759,273238.82580954564,90830.75101510451,154875.89230428066,142,2282,1632,1
-999.023844805482,-132.13460465580974,-52.72816040472949,272764.00701470353,90683.28565665263,154634.65909700177,144,2292,1637,1
-999.1929884142493,-139.08572564445365,-51.403921920710474,272368.03691575397,90563.15571375003,154390.3033266752,82,2289,1666,1
-999.5155264302279,-145.9955783384452,-50.054214866124944,272055.89780842385,90469.37571616635,154139.47066499206,69,2309,1665,1
-1000.0216903210764,-152.80680680485196,-48.66410259522121,271831.2478794071,90400.58914508291,153878.3054524343,86,2300,1691,1
-1000.7430808503416,-159.45847880191027,-47.217864708702,271696.231814532,90354.97740333794,153602.48446350053,73,2281,1715,1
-1001.7122082017463,-165.88931893634913,-45.702161396649906,271651.43426745135,90330.23841079477,153307.25740660666,114,2301,1728,1
-1002.9623607516509,-172.04144459254758,-44.10840630554634,271695.9506598829,90323.62352948052,152987.48171974227,44,2282,1760,1
-1004.5274608555545,-177.86299748520526,-42.433319704163615,271827.5585534578,90332.00289150904,152637.63437510867,26,2273,1797,1
-1006.4415524618333,-183.30985698800902,-40.67787792638683,272043.0106127353,90351.95032698919,152251.80061491107,17,2341,1772,1
-1008.7381409269858,-188.34639261321686,-38.84553008585284,272338.350711457,90379.82204621768,151823.67571682742,0,2319,1810,1
-1011.449712495506,-192.94470274206037,-36.94015060265252,272709.1446562664,90411.81131363328,151346.60986554163,9,2333,1804,1
-1014.6074129316783,-197.08266861665996,-34.96382073426232,273150.63525318797,90443.99796113631,150813.6902200342,0,2356,1830,1
-1018.2408248296905,-200.74199448061853,-32.91505433800181,273657.8273490259,90472.40197152966,150217.8466251246,11,2353,1843,1
-1022.3780645400545,-203.90757755423732,-30.78784245594437,274225.50575856405,90493.03420135354,149551.9733064674,16,2340,1857,1
-1027.0460584915904,-206.56847957839497,-28.571169070989548,274848.23189962,90501.93922652001,148809.0605400604,6,2316,1897,1
-1032.2706715597333,-208.7193919052796,-26.248892274006764,275520.3380452273,90495.228362663,147982.33358718109,8,2333,1895,1
-1038.0773242941825,-210.3626900336959,-23.801291790488083,276235.96416201134,90469.10863046811,147065.38821221123,23,2360,1895,1
-1044.4924414715256,-211.5129527395583,-21.21066911261949,276989.1952403943,90419.88928493559,146052.30711089683,21,2327,1919,1
-1051.5435308419374,-212.2024052597624,-18.47116450963728,277774.2722436269,90343.92689286277,144937.7428781748,7,2285,1979,1
-1059.2559452309247,-212.48084349275615,-15.59766628857401,278585.9971748406,90237.62337369434,143716.9223734887,17,2287,2001,1
-1067.649468485665,-212.4067658000176,-12.624856447484403,279420.54150562524,90097.77249420446,142385.57530195263,28,2280,2039,1
-1076.7388569022414,-212.035512816024,-9.593618446139946,280276.30873886193,89922.23680826822,140939.94245147967,14,2243,2099,1
-1086.5367789017566,-211.41178045443525,-6.5334895323182955,281154.11780331476,89710.39832587188,139376.95653793603,23,2269,2114,1
-1097.0547718056475,-210.56620053606713,-3.4517803275562557,282056.54803809494,89462.92556616338,137694.44602353976,13,2150,2202,1
-1108.3009678676071,-209.51311493123478,-0.33354676154191804,282986.9803136292,89181.05887294319,135891.23232461174,18,2173,2191,1
-1120.2772246487314,-208.250581109408,2.8505190445328537,283948.7740967988,88865.95274131189,133967.1328317276,5,2171,2211,1
-1132.9778002825065,-206.76334232961938,6.134421398332609,284944.5484307966,88518.34693829401,131922.8950288028,24,2131,2258,1
-1146.3890244909483,-205.02684817391227,9.54991007863939,285975.5183539993,88138.5298987886,129760.14981948337,21,2080,2207,1
-1160.4896453198444,-203.0114982434844,13.122747980831234,287041.0303295527,87726.43751622376,127481.41673159265,19,2007,2179,1
-1175.25184109673,-200.6874886683942,16.870115920282352,288138.3550449643,87281.72091732471,125090.07376562848,31,2099,2315,1
-1190.641121533475,-198.0287678652854,20.79829256078561,289262.65950801736,86803.73496595504,122590.3278850283,29,2044,2178,1
-1206.6135977818237,-195.01388519791266,24.900713135436273,290407.10095214366,86291.45952692236,119987.18656572889,30,2050,2220,1
-1223.1117268873777,-191.6239522278976,29.15593726462139,291563.01945235196,85743.36817506561,117286.32102898396,25,2015,2203,1
-1240.0608966780117,-187.8404523947754,33.52595589115971,292720.10722496227,85157.33805290051,114493.93725247923,31,1891,2300,1
-1257.3682962279997,-183.64584862992672,37.956395042774545,293866.4430568246,84530.70028006515,111616.76039010695,24,1871,2305,1
-1274.9232178207449,-179.0274747513019,42.37867809107528,294988.43504702026,83860.40440169076,108662.01974247635,27,1840,2328,1
-1292.596387141472,-173.9824113487931,46.71237740040432,296070.7531526861,83143.20022397,105637.46096614464,20,1717,2403,1
-1310.2376627284964,-168.52125991945724,50.867689479380175,297096.3856806697,82375.77374609918,102551.40485607558,9,1711,2401,1
-1327.6734579706367,-162.67072176203794,54.749456272658904,298046.9179191724,81554.83248849357,99412.70811222901,32,1616,2411,1
-1344.7046276181638,-156.47512634497608,58.26153314617075,298902.8950053921,80677.17323513134,96230.7030032193,35,1644,2402,1
-1361.106181566428,-149.99679616579414,61.309943769568555,299644.14450953924,79739.76709277621,93015.23611595666,66,1535,2416,1
-1376.6312649408217,-143.3164835940602,63.80676993508021,300250.05886504555,78739.90800764273,89776.71984765763,68,1475,2455,1
-1391.0182875469966,-136.53438840970125,65.67610798920539,300699.74590791884,77675.41154321542,86526.22870357663,66,1424,2443,1
-1403.9976402053564,-129.7691548658639,66.8597538919266,300971.98402242054,76544.71380257454,83275.71126832545,95,1366,2441,1
-1415.2962727607696,-123.15383625482781,67.31915183354504,301045.05476906744,75346.81072270255,80038.27588283758,126,1296,2419,1
-1424.6389460004118,-116.83242997643958,67.03244057798366,300896.5807625959,74081.28479832817,76828.61209807484,170,1256,2410,1
-1431.7466174539625,-110.96063651057521,65.98908277323251,300503.6401057962,72748.80604834585,73663.59355504377,174,1279,2367,1
-1436.3352599513169,-105.71121298984791,64.18526868379766,299843.42175488925,71352.20169518208,70562.9421680684,198,1306,2293,1
-1438.1170604556462,-101.28157143127943,61.620940499587476,298894.40249185904,69897.70536879469,67549.85478175664,173,1332,2219,1
-1436.8051174847162,-97.89943372034972,58.29708623033724,297638.2543008661,68396.05564583513,64651.578157035365,244,1375,2143,1
-1432.1238402475792,-95.82186842216001,54.213142839186574,296062.77096963837,66863.482285165,61899.93100442032,238,1501,2058,1
-1423.8236372245913,-95.32404615199667,49.36764132940236,294165.20138733817,65322.507992268824,59331.72806786256,259,1636,1907,1
-1411.6969662623542,-96.67116676547877,43.765239870643285,291955.5075748357,63802.23117405404,56988.87125047195,274,1723,1838,1
-1395.5953561430454,-100.07122657881074,37.428484490753576,289459.7058462758,62337.905840130465,54917.91668038036,268,1933,1744,1
-1375.4435866941283,-105.62475921783489,30.408230591491897,286722.5686502154,60969.97218759766,53169.35028279489,222,1943,1710,1
-1351.2451538863447,-113.28800418138822,22.788475542497928,283808.47067425936,59742.42355034691,51796.6385528069,237,2018,1625,1
-1323.0795575546224,-122.85079749294482,14.685323195149161,280800.16499997495,58700.29155237727,50854.68704288467,207,1970,1595,1
-1291.096592200567,-133.93190043311265,6.242432001828016,277796.2504182059,57886.92441980624,50397.924898105965,165,1900,1619,1
-1255.5092978820862,-146.001290136798,-2.3721376969899266,274907.3628138135,57341.54623782446,50478.81423525781,162,1966,1552,1
-1216.5842011211457,-158.43338705665406,-10.964923075988382,272249.91141753684,57096.68682870998,51146.87686001395,120,1911,1571,1
-1174.631612592393,-170.5758111458086,-19.316064337779455,269937.9128096237,57175.71756059742,52447.65671261155,140,1890,1567,1
-1130.0011466214414,-181.8073667010942,-27.183927032183306,268075.6907412022,57591.303294554295,54421.45434046516,107,1930,1527,1
-1083.0817271355875,-191.57988718103903,-34.317369113134724,266752.2338129271,58345.10273733455,57101.93509391402,79,1933,1512,2
-1034.3002486051228,-199.4545375091281,-40.47459202432528,266035.9166512693,59428.620111290526,60514.54612065731,76,2011,1454,2
-984.1164660199483,-205.12773405911813,-45.44281746480502,265970.1776088605,60824.798415881414,64675.024432084014,57,2014,1452,2
-933.0131394415313,-208.43515329605412,-49.053872801076366,266571.78885452956,62510.28611472116,69588.60429428988,57,2013,1455,2
-881.4807065000823,-209.33823118263234,-51.1951533757626,267831.6422480954,64458.52919199195,75250.13595371599,40,2012,1453,2
-830.0043465647942,-207.90684512473234,-51.81390812939288,269717.0310200403,66642.76854225202,81644.73410750089,34,2011,1453,2
-779.0596785410338,-204.30315529011054,-50.91252940408945,272175.34697831474,69038.0212385639,88748.79527193421,5,2008,1457,2
-729.1113527427165,-198.76226793868412,-48.53622424580545,275139.4203020632,71622.26510209848,96531.45413230588,0,2011,1451,2
-680.610097602073,-191.56991568644432,-44.75717793949163,278533.0064045552,74376.95154778082,104955.82779225739,11,2011,1456,2
-633.987372312462,-183.03832498590793,-39.65853524823588,282275.2376499707,77286.70543230543,113979.78685383081,19,2014,1452,2
-589.6452937388664,-173.47831119597666,-33.32213488784924,286284.55785910477,80338.42135251046,123556.87870583434,0,2012,1451,2
-547.9450931027661,-163.17555639358247,-25.824974234738015,290481.74326258275,83520.13670597695,133637.24208657016,0,2012,1449,2
-509.1990779755647,-152.38221113081372,-17.243235801096084,294791.5741788498,86820.09769681,144168.35385104542,0,2011,1451,2
-473.66717438127984,-141.3224478809195,-7.659092645329282,299144.01174890564,90226.28849583726,155096.12484029506,2,2011,1453,2
-441.5594952573597,-130.20207184212586,2.832562454377832,303475.0519979743,93726.38655018981,166365.85675692823,1,2011,1451,2
-413.043446872954,-119.21309018207673,14.120829230975811,307726.945094465,97308.1471161528,177922.55843200657,7,2010,1451,2
-388.2506284665037,-108.53137446643382,26.081424132910332,311848.1219517022,100960.25238588288,189711.22281291505,19,2011,1454,2
-367.28178830802005,-98.31239566284317,38.58323186813512,315793.07059897145,104673.15049305453,201677.102205665,3,2010,1454,2
-350.21038312440163,-88.68951944096537,51.49536965011919,319522.1815474254,108439.38940396019,213765.93263874223,2,2010,1455,2
-337.0850937731976,-79.7761540004176,64.69317160064304,323001.71738329006,112253.50838930119,225924.63656736873,36,2009,1452,2
-327.9320576292813,-71.67087822482534,78.06159454170404,326203.8576975818,116111.57064205999,238102.05510085126,58,2009,1454,2
-322.75672669370505,-64.46322269115349,91.49520133510921,329106.76780340646,120010.31694847498,250249.27663615713,43,2009,1452,2
-321.54296267307694,-58.238207566217305,104.89528190887151,331694.81597880425,123946.1159040956,262320.0786361314,37,2010,1451,2
-324.24907343615183,-53.078064790719914,118.1659153850514,333958.8180742033,127914.0277623773,274271.2317538207,24,2010,1451,2
-330.8045565833977,-49.05917159736994,131.213332386222,335896.1862958036,131907.31968739742,286062.3498268894,27,2009,1453,2
-341.1095541286645,-46.24515535649062,143.95063301706247,337511.05789405183,135917.46372262714,297655.8279963107,7,2008,1453,2
-355.03562777767866,-44.680853098975994,156.30336855311722,338814.2695671057,139934.18384159484,309016.7929983422,6,2009,1452,2
-372.4272469027479,-44.38983037330411,168.21126571932263,339822.90846624365,143945.30160346357,320112.9124925271,18,2008,1451,2
-393.104270925825,-45.374231846521795,179.62644400497214,340559.4298189741,147936.58998832564,330914.47601812397,34,2008,1453,2
-416.86440155521996,-47.61535213160775,190.51054884531194,341050.5901572802,151891.7425249878,341394.4342562443,40,2010,1451,2
-443.4856565864858,-51.07499325760751,200.83240433123143,341326.2188727427,155792.55940018865,351528.120858494,27,2006,1455,2
-472.7298990007519,-55.698817508238655,210.56686328304073,341417.6835646522,159619.51590236023,361293.134972679,28,2008,1452,2
-504.3460360807881,-61.421275055574434,219.69409840851105,341356.3528739745,163352.41970365506,370669.27264881774,25,2008,1452,2
-538.0730061475907,-68.17044407728747,228.19812175576712,341172.30301608646,166970.98536921854,379638.26990054187,39,2006,1452,2
-573.644547551662,-75.87251574469943,236.06501881233453,340893.1051875675,170455.582240937,388183.68481458887,42,2008,1453,2
-610.793783832394,-84.45551061057826,243.2823333139835,340542.84102098364,173787.964130035,396290.76567945216,29,2008,1452,2
-649.2565436597255,-93.85185357428185,249.8403555031364,340141.5710591106,176951.7227667244,403946.090361093,27,2008,1455,2
-688.7756545102885,-104.0005454849879,255.73487458335453,339705.0857327828,179932.66118977655,411137.2915012545,32,2007,1454,2
-729.1045660056233,-114.8487180393907,260.96929533588093,339244.7961064105,182719.0474432773,417852.8249658668,24,2006,1453,2
-770.0081219174028,-126.35231712559046,265.55447292545165,338767.8165514486,185301.5941587385,424081.6831962182,25,2006,1454,2
-811.2620865039806,-138.47656845864,269.50737633651516,338277.276735584,187673.3059539168,429813.313204879,19,2008,1452,2
-852.6518236709571,-151.19595375915557,272.85055959045627,337772.81146218145,189829.24704412755,435037.58723982616,8,2008,1454,2
-893.9707661729288,-164.49342379109723,275.61313330962093,337251.22783796786,191766.141777445,439744.582172989,10,2007,1452,2
-935.0207558771525,-178.35957672762328,277.8325355491708,336707.3795091038,193481.82908745718,443924.328379735,0,2007,1453,2
-975.6127597500114,-192.79197962090157,279.555622859599,336135.0597536673,194974.6622963829,447566.520863763,12,2006,1454,2
-1015.5663305118937,-207.79436731475133,280.83809616497376,335527.78258491197,196242.91548073283,450660.09618235694,14,2006,1455,2
-1054.7092581839254,-223.37559892060202,281.7424255177848,334879.54986172373,197284.2717851493,453192.87400494714,19,2006,1454,2
-1092.876728296691,-239.547554538202,282.3351991383898,334185.5142909711,198095.52671093907,455151.41213093814,9,2006,1451,2
-1129.9086983872864,-256.32049793665806,282.6847136597224,333442.3277471419,198672.54227680713,456520.997695436,13,2008,1451,2
-1165.647134854524,-273.6953542650813,282.85959481522127,332648.117153021,199010.41080042915,457285.7640958904,12,2006,1451,2
-1199.9336266947857,-291.6541732227457,282.92954524143937,331802.1450957464,199103.80927601925,457428.97661944793,4,2006,1454,3
-1232.6070487652628,-310.14982272781276,282.9677226699711,330904.30809808715,198947.40668126053,456933.36876901175,6,2006,1454,3
-1263.503919295768,-329.09691275333023,283.0523905318886,329954.41466877796,198536.2039267575,455781.4997696976,20,2006,1453,3
-1292.4630658346668,-348.36867275679145,283.2663391282039,328951.05840519286,197865.86846608703,453956.2812452188,0,2007,1453,3
-1319.3314613370476,-367.8010731293974,283.69418115091304,327890.3831351082,196933.08758754266,451441.65662233974,14,2006,1454,3
-1343.9691624738794,-387.20234314408276,284.4173836242985,326765.10435995087,195735.8876077423,448223.35319317825,10,2006,1454,3
-1366.254386465059,-406.36658077952904,285.50707222421636,325563.79964427726,194273.90110096545,444289.750021563,8,2005,1454,3
-1386.0875643911825,-425.08617924864916,287.0168136014257,324270.6790334078,192548.5511783352,439632.809622152,11,2006,1451,3
-1403.3936067800082,-443.1584809701617,288.9766464357002,322866.26389004226,190563.0547462965,434248.88952967164,0,2007,1454,3
-1418.1244106598213,-460.38841632456194,291.38701164786494,321328.98214491515,188322.20906974998,428139.3716690343,0,2009,1452,3
-1430.260981300855,-476.58858938329683,294.21315164304656,319637.1202871905,185832.1432294702,421311.2278740655,0,2009,1453,3
-1439.8131304515864,-491.5760625299416,297.382656567023,317770.8656794879,183100.13912608358,413777.4483173609,1,2010,1451,3
-1446.8178797109804,-505.16630885383785,300.78698191380977,315714.5968483958,180134.43545931304,405557.1558034484,0,2009,1449,3
-1451.3385350512538,-517.1656171753486,304.28594877831694,313458.9714883518,176944.1073239493,396675.6568749935,0,2009,1452,3
-1453.4643443360208,-527.3617490685798,307.7160393776994,311002.06912881834,173539.10307412254,387164.4847090233,0,2010,1453,3
-1453.3093186353196,-535.5125155280509,310.90342732102454,308349.4935660934,169930.3212426949,377061.1186474809,0,2000,1462,3
-1451.0097030138797,-541.3360416561466,313.6774521323878,305513.7053363893,166129.7977755819,366408.74705206003,5,2000,1461,3
-1446.7207955612053,-544.5095864681023,315.8789778917773,302512.3017655055,162151.1872575716,355256.4119997218,12,1990,1467,3
-1440.6134338926581,-544.6802180645572,317.36195806867914,299364.9108528854,158010.53853896144,343659.21636687836,0,1992,1468,3
-1432.870156395424,-541.4838109529954,317.99113214206346,296089.78515246505,153727.29191318317,331678.72496273473,3,1995,1463,3
-1423.680198794442,-534.5733092606944,317.64280681307434,292701.27912439074,149325.4739120022,319383.5767023155,3,1997,1461,3
-1413.2328724659264,-523.6622480302647,316.21067848238374,289208.1379219776,144835.02640128593,306849.73932485975,11,1996,1467,3
-1401.7148538248312,-508.5719686400363,313.61103322594516,285612.80791654764,140292.935064427,294160.5816673496,0,1996,1465,3
-1389.317623208804,-489.25923705776853,309.78624871690226,281912.59158258076,135743.29187154758,281406.7680842128,6,1995,1464,3
-1376.2481045868358,-465.8163882950924,304.7123856118139,278102.72413053666,131235.62715523032,268685.1449545654,0,1997,1463,3
-1362.7308838525291,-438.4560951142415,298.4074259860796,274180.24691276276,126821.97832328615,256096.85461751578,0,1996,1461,3
-1349.0011311239675,-407.4988693562226,290.9253967811231,270147.5517671227,122553.00002540143,243744.79038833533,0,1992,1468,3
-1335.2917273586852,-373.3697043932702,282.33618761762506,266015.24767729815,118473.31751509482,231729.72933857227,0,1991,1468,3
-1321.8174915136105,-336.59842207176814,272.70978251192093,261803.80073049598,114618.15575568238,220146.37138205583,0,2004,1456,3
-1308.7585351008627,-297.8162566279528,262.1144775799607,257542.981140058,111013.07021501598,209080.25126598222,0,2008,1457,3
-1296.244065421307,-257.74541642053055,250.62196122917285,253269.1067029425,107675.96077152519,198604.5701181816,0,2006,1450,3
-1284.343039961956,-217.18783500824782,238.31166440676432,249021.69171794908,104619.49157958316,188777.50107993316,58,2006,1453,3
-1273.066518289383,-177.01974548440782,225.27373587605032,244840.87406302782,101852.9306757572,179640.9642870147,330,2011,1452,3
-1262.3774927785983,-138.19003264321023,211.61391848429543,240765.65931337848,99383.3921453363,171220.13896311476,610,2010,1452,3
-1252.2019830101149,-101.7086675979908,197.4609090223384,236832.85163898012,97216.42113838522,163523.37340514638,1051,2011,1453,3
-1242.436420467693,-68.59020225883224,182.9640091071725,233076.62834022375,95355.27754110032,156542.82835968112,1571,2011,1451,3
-1232.9481256205315,-39.73234022339714,168.26850918245754,229528.8191020759,93798.71545695796,150255.7933502228,1772,2011,1452,3
-1223.5735315573352,-15.771255503214237,153.4804500907112,226220.15486196196,92538.46500345183,144626.77283843534,2110,2012,1452,3
-1214.1238083102157,3.0312679782787613,138.6414317635573,223182.6932165804,91557.82941016092,139611.21509913035,2194,2008,1454,3
-1204.4003052558703,16.84229246791064,123.72097272320173,220453.21553938085,90831.73929898183,135161.4307919952,2329,2009,1454,3
-1194.214963992591,26.226103017481933,108.6310175623723,218075.95566561003,90328.23284299734,131233.16740390114,2486,2008,1456,3
-1183.4196511731789,31.99507886149664,93.2726513023034,216101.67010877337,90011.91078397295,127790.50369694337,2584,2008,1456,3
-1171.9520390798682,34.971710738226854,77.61000083119139,214581.70785323487,89849.28515080981,124807.78483562355,2590,2005,1454,3
-1159.8770157921167,35.791433079641166,61.73235263796514,213559.69618427972,89813.49354672016,122268.06264779065,2613,2009,1451,3
-1147.3815707069991,34.86494241761202,45.86210341964074,213064.18942709157,89885.42625851899,120158.13687240006,2537,2008,1451,3
-1134.716930315585,32.47929352633215,30.3082156759622,213103.75364546978,90051.25354741726,118462.1090298532,2514,2008,1452,3
-1122.132195840972,28.92011989765135,15.404829228291257,213665.6931614429,90298.88347766963,117157.38033094512,2406,2016,1452,3
-1109.8380452441547,24.521915214332523,1.4668310285118857,214718.79247243813,90615.51977016595,116215.61103323709,2345,2020,1455,3
-1097.9995933357147,19.63952185105409,-11.239276654255276,216218.32967463264,90986.91244759738,115606.91656049526,2412,2026,1456,3
-1086.7423007722125,14.591603087456711,-22.51489669797366,218110.63213815566,91398.20428945457,115303.46993198888,2492,2020,1453,0
-1076.1593158512994,9.62312589230451,-32.23541889578888,220335.79754325972,91835.5799778227,115280.58557455186,2492,2012,1453,0
-1066.3146790694725,4.900217584372035,-40.34623837392033,222829.82471490352,92287.45395786197,115516.04873026225,2560,2020,1452,0
-1057.2439498582048,0.5262061472157741,-46.85867121484254,225527.5844752063,92744.664282734,115988.96328298633,2591,2038,1453,0
-1048.956954072611,-3.4369634407938303,-51.850277579964086,228365.85603029572,93199.95018856325,116678.89904581764,2635,2047,1454,0
-1041.44378224914,-6.953983156976022,-55.46384668622999,231285.3552338592,93647.34118427617,117565.66075923061,2702,2045,1453,0
-1034.680689039588,-10.014667443197974,-57.897222288128916,234232.02222479318,94081.97724820307,118629.48267119439,2752,2055,1454,0
-1028.6339675291215,-12.640925477419668,-59.38467547564094,237157.8686676723,94500.33259314581,119851.28213353718,2804,2047,1457,0
-1023.2633024964146,-14.889543791719971,-60.17351948503382,240021.6463083869,94900.3738386939,121212.78732441064,2847,2054,1450,0
-1018.5247299631791,-16.84549961718607,-60.49819470163407,242789.8657866545,95281.25484023834,122696.54807042464,2913,2062,1453,0
-1014.3714709918357,-18.610546029012927,-60.56020770697737,245437.89003003633,95642.59596731084,124285.85127210396,2935,2069,1454,0
-1010.7527963202418,-20.290987802819178,-60.521788245203815,247950.40267289375,95983.66530370689,125964.58992887154,2977,2065,1457,0
-1007.6128865328733,-21.984413297936726,-60.509272347868226,250321.11590545502,96302.79014347063,127717.16222502346,2997,2064,1453,0
-1004.8913989542218,-23.767074603351254,-60.61700614853076,252551.82227363042,96597.3030701632,129528.38046869992,3005,2064,1454,0
-1002.5267036642651,-25.684426609914002,-60.90709748637174,254650.61781521645,96864.1668442918,131383.43892662108,2952,2065,1453,0
-1000.4613728184835,-27.74506404929424,-61.40704338618881,256629.2656817244,97101.00313116118,133268.06398974,2915,2085,1453,0
-998.6474056702458,-29.919747610232818,-62.10987917459203,258500.4855169491,97306.87666956408,135168.7471840292,2880,2091,1454,0
-997.0484967856456,-32.1487169798363,-62.9799090372037,260275.9260835065,97482.41123464706,137072.9162219605,2796,2096,1452,0
-995.6390228049705,-34.356292236011285,-63.96412599400542,261964.7642503988,97629.39991826347,138969.05494872894,2741,2087,1457,0
-994.4014826082182,-36.46561257816301,-65.00499020381639,263572.8907661999,97750.31495133232,140846.69567696727,2651,2096,1455,0
-993.3241236196305,-38.408613858780775,-66.05042549478496,265102.9688752188,97847.92034532425,142696.1980475613,2563,2100,1455,0
-992.399307136854,-40.132625823777815,-67.06096505090542,266555.31670223316,97924.94820205233,144508.40830565436,2467,2100,1454,0
-991.6225216655017,-41.60401794309672,-68.01404325649928,267929.0040834836,97983.82380988916,146274.32574319714,2376,2114,1458,0
-990.9915908299783,-42.8072982370872,-68.90489281004453,269222.7220621195,98026.48253318411,147984.89869721472,2333,2115,1460,0
-990.5056619028968,-43.74064967768823,-69.74446685364241,270435.5132699649,98054.26795446216,149631.0274914737,2230,2106,1458,0
-990.1642165004749,-44.411067383080315,-70.55509689307785,271567.297331024,98067.90128039628,151203.68398085627,2162,2110,1455,0
-989.9661171199,-44.83079771338868,-71.36429963622093,272618.95642002457,98067.51817938057,152694.11283285744,2083,2107,1458,0
-989.9083818220173,-45.01462297946144,-72.1973578366612,273592.0517363672,98052.73211431084,154094.17850897773,2053,2123,1458,0
-989.9850087314018,-44.97785555855578,-73.07126719533339,274488.37692735187,98022.67216491084,155396.70916278535,1990,2110,1456,0
-990.1864133884991,-44.7355204111865,-73.9924408943619,275309.4348440174,97975.99263377379,156595.6948846128,1950,2123,1456,0
-990.4996543356568,-44.302736194188746,-74.95743206248228,276055.87218895525,97910.91153140232,157686.42566641618,1884,2110,1459,0
-990.9092749298874,-43.696131062270034,-75.95432992903876,276727.01095658046,97825.32550860621,158665.58392075065,1833,2130,1457,0
-991.398831001153,-42.93657090306467,-76.96313005776962,277320.65298305725,97717.03109805103,159531.25837484116,1718,2137,1456,0
-991.9535225122036,-42.05316937701484,-77.95514810890543,277833.1772239071,97584.04731006877,160282.94003774217,1567,2140,1457,0
-992.5630355058025,-41.08675417915552,-78.89298086411654,278259.82037624926,97424.90910494578,160921.48960581847,1509,2149,1457,0
-993.2223347374718,-40.09039996139705,-79.73272086019018,278595.17206092435,97238.77310586555,161449.0030695948,1468,2158,1457,0
-993.9295791003827,-39.12687185180702,-80.42857966715884,278833.9705416345,97025.33396737196,161868.59081443434,1369,2157,1459,0
-994.6829684408224,-38.264815934979886,-80.93771980251755,278971.9524015859,96784.69187534094,162184.16047587624,1378,2176,1463,0
-995.4786644774994,-37.57451367503166,-81.22379179761224,279006.47657398833,96517.29869254926,162400.2650241039,1381,2165,1459,0
-996.3099069193854,-37.122971833934955,-81.25980103268458,278936.94465792173,96223.99024447027,162522.00587225094,1290,2160,1460,0
-997.1664287442845,-36.96987290588747,-81.03047246811597,278765.0173173474,95906.04280873085,162554.97009648438,1299,2159,1459,1
-998.0339445632916,-37.16642041821562,-80.53367701718491,278494.54161741305,95565.22059647483,162505.21053498864,1206,2168,1460,1
-998.8938883610842,-37.756745141422904,-79.78101639113669,278131.2402639585,95203.83078849851,162379.26103819843,1147,2196,1469,1
-999.7235107991012,-38.78016089250496,-78.79748648568064,277682.36315444304,94824.80421696142,162184.15020267578,1038,2199,1467,1
-1000.4966881199338,-40.27308214755053,-77.61934668003992,277156.4909826674,94431.7684309119,161927.38616255077,1085,2213,1473,1
-1001.186049871376,-42.26937658550244,-76.2892260311374,276563.48378287314,94029.04604167046,161616.87481548399,904,2222,1631,1
-1001.7660559712064,-44.79811389695817,-74.84946317403477,275914.44795761595,93621.56020779804,161260.74786143698,965,2228,1631,1
-1002.2156229706892,-47.879975646052884,-73.33660334761493,275221.6604016162,93214.6973498042,160867.17141836512,892,2249,1634,1
-1002.5197558234812,-51.52455603612675,-71.77865055191252,274498.3557542695,92814.11411322167,160444.1909120191,897,2253,1635,1
-1002.6704438614843,-55.72911170837377,-70.19450503339823,273758.27413000684,92425.44460733616,159999.57744046525,763,2303,1635,1
-1002.6667973188331,-60.47862477848267,-68.59484385402133,273015.12323941774,92054.01497627076,159540.69449625758,799,2295,1637,1
-1002.5145064295589,-65.74760808838009,-66.98425297795016,272282.14715012396,91704.67283172379,159074.42981003685,673,2311,1634,1
-1002.2249312572447,-71.50328084982863,-65.3642201265675,271571.7882749405,91381.68779935212,158607.1628998536,499,2343,1642,1
-1001.8142093694047,-77.70808491693552,-63.7358223966085,270895.4782486196,91088.68067699103,158144.74622439544,519,2389,1645,1
-1001.3026066043511,-84.32037035000643,-62.1011709181585,270263.5981711927,90828.56503613577,157692.48026171725,532,2385,1647,1
-1000.7137728588849,-91.29419535897893,-60.463879914727286,269685.4836806054,90603.475877975,157255.0411807341,535,2427,1644,1
-1000.0738183113131,-98.578932325707,-58.8288809601429,269169.39576013957,90414.72317609777,156836.38975141008,358,2409,1655,1
-999.4108477073249,-106.11848897719884,-57.20113989437639,268722.48248723365,90262.81605339325,156439.7024712155,356,2425,1652,1
-998.7553353999461,-113.85036983567996,-55.58350306488297,268350.7428771366,90147.52216808112,156067.30134845155,342,2415,1683,1
-998.1407058764424,-121.70532636689519,-53.975358870643916,268059.0065022278,90067.88460019029,155720.5814285899,241,2387,1717,1
-997.6029618675576,-129.60868024113077,-52.37347965558748,267850.93131251296,90022.15924355737,155399.94143769256,287,2378,1747,1
-997.1792993699236,-137.48337456028972,-50.77446833477987,267728.99520851375,90007.74064178855,155104.6912398401,194,2379,1762,1
-996.9070943060307,-145.25284093711738,-49.17666820151587,267694.49678265845,90021.19077714767,154832.96387882836,214,2379,1774,1
-996.8242168545145,-152.84282844509744,-47.57979607869744,267747.5984211503,90058.41237292354,154581.67779815602,213,2381,1795,1
-996.9700362042639,-160.18320131024723,-45.98304890207164,267887.38452135294,90114.90228413,154346.53913415232,168,2354,1823,1
-997.385862486452,-167.20958718286604,-44.38374565566906,268111.892385834,90185.9604809673,154122.07375102225,79,2352,1828,1
-998.1143488459649,-173.8641679170041,-42.77696014790954,268418.15464864013,90266.80379822038,153901.7119295847,137,2378,1817,1
-999.1983000387189,-180.0961085071668,-41.15538216117153,268802.3051910874,90352.63372004995,153677.93952426032,182,2316,1890,1
-1000.6794943658347,-185.8626004123919,-39.50910013507986,269259.7105085679,90438.68497478604,153442.482091822,112,2309,1911,1
-1002.5978579740836,-191.13069069331294,-37.82537390953353,269785.07906751666,90520.253579398,153186.48865402405,44,2366,1892,1
-1004.9909692748233,-195.8787680083083,-36.0884264496152,270372.5622977795,90592.71237972601,152900.71684679863,28,2365,1890,1
-1007.8934565861523,-200.09662799006384,-34.27924391622416,271015.8959351463,90651.50834515294,152575.7058964014,57,2282,1988,1
-1011.3360266533049,-203.7842163363334,-32.37570878043592,271708.5955893541,90692.13560753295,152201.92671921366,58,2282,2004,1
-1015.3445317428659,-206.94976146653872,-30.353498436299837,272444.11903312546,90710.10183625699,151769.92659125812,56,2281,2023,1
-1019.9398051394286,-209.60804664924981,-28.18779411551479,273215.939901628,90700.92542559642,151270.4797842128,101,2296,2036,1
-1025.1385674346036,-211.77923503194435,-25.855631094844036,274017.5784946437,90660.19419025152,150694.7485461135,52,2279,2076,1
-1030.954689517596,-213.4890210005198,-23.339859152236173,274842.60325860145,90583.65749892501,150034.444457479,50,2231,2119,1
-1037.399469812315,-214.7708532268583,-20.636899909836142,275684.68282647844,90467.30573787258,149281.94633408458,81,2266,2142,1
-1044.4798517696097,-215.66801474455977,-17.76618870019539,276537.8556163182,90307.46471422576,148430.3321402715,60,2206,2204,1
-1052.1957574750943,-216.2318711352443,-14.773402155284478,277397.0032950163,90101.03582592419,147473.35114782685,18,2188,2246,1
-1060.5401106019744,-216.5148452919712,-11.721000903886654,278258.3993019798,89846.02633921841,146405.37508318832,24,2129,2307,1
-1069.5020976057929,-216.55951418492114,-8.66811348852885,279120.17557946185,89542.19163233398,145221.32117304887,13,2186,2276,1
-1079.0700269595204,-216.38827556654763,-5.651705209969712,279982.4044043877,89191.28821845651,143916.57875846393,21,2154,2328,1
-1089.2316464578173,-215.9976463672517,-2.680226489957293,280846.5260509969,88796.6276688191,142486.94525962527,50,2135,2363,1
-1099.972054934607,-215.35749650445663,0.2607752059213915,281714.1944747209,88362.12367153459,140928.53500108278,31,2115,2430,1
-1111.2703090073844,-214.4144290776417,3.198833590851315,282585.99862735043,87891.44280645912,139237.7430955504,47,2136,2437,1
-1123.0976870149934,-213.1001296714574,6.165684023313342,283460.4300835946,87387.73082317297,137411.31980282656,25,2074,2476,1
-1135.4192213067452,-211.3443606256739,9.190057576877614,284333.1245950042,86853.80920427405,135446.4729789933,51,2106,2499,1
-1148.1960817546603,-209.0875396951468,12.292611245747475,285196.4585408576,86292.46881520122,133340.9798759176,38,2105,2528,1
-1161.3860331480157,-206.28825798831022,15.483256422531834,286039.71470246813,85706.59875001229,131093.30065730112,27,2063,2570,1
-1174.9416534413676,-202.92628463673609,18.759489221896192,286849.7889883883,85099.10546267073,128702.6291798109,41,2023,2420,1
-1188.8072056608248,-199.00278032862744,22.10501117463994,287612.0448403752,84472.7729447974,126168.94673427168,41,1981,2453,1
-1202.9145889701535,-194.53855403450353,25.488640976249872,288311.0767413016,83830.20910412537,123493.15247750524,32,2002,2444,1
-1217.177885935959,-189.57194257429606,28.862382970071184,288931.4751588183,83173.88617373859,120677.22414418719,65,1984,2436,1
-1231.4881410362732,-184.15827674093438,32.15979717844728,289458.49399694806,82506.26354456719,117724.43227021837,27,2031,2440,1
-1245.7131285085195,-178.37111324927784,35.30002290258563,289878.50641763705,81830.00467434169,114639.6084583195,47,1987,2442,1
-1259.7026951698476,-172.30327935624317,38.19827293449311,290179.39527992706,81148.20249971273,111429.37558769011,50,1920,2480,1
-1273.2940698721147,-166.06673700561763,40.77542474214088,290350.8969779848,80464.46492002202,108102.37142610816,23,1948,2389,1
-1286.3149488799118,-159.79210342116326,42.961464520597524,290384.81875696953,79782.77065497503,104669.4801061241,27,1947,2406,1
-1298.587604678264,-153.62788454161287,44.69440717407123,290275.16588667216,79107.14767933247,101143.9962810581,52,1893,2413,1
-1309.9346303345387,-147.73850983444882,45.91813451127008,290018.1998994319,78441.39550011375,97541.79766029892,55,1823,2394,1
-1320.1837463286581,-142.2997044393163,46.58107955839359,289612.4299064597,77789.00081035157,93881.53712787495,53,1749,2382,1
-1329.1696724549097,-137.4905079344852,46.63555495295553,289058.59916203254,77153.17215091709,90184.72779189092,86,1750,2324,1
-1336.7324722898425,-133.48488832744258,46.03659860840457,288359.76392018114,76536.89868978677,86475.83243986977,66,1762,2262,1
-1342.71409261646,-130.44529677188928,44.740039077917174,287521.6073399174,75943.04368398096,82782.40240937876,56,1687,2217,1
-1346.9550869912566,-128.5165868888198,42.70063386045125,286553.0690657001,75374.53896435206,79135.00994044698,88,1687,2148,1
-1349.2927357493613,-127.81967550135911,39.87240551631883,285467.14581952326,74834.69948854152,75566.97964211079,87,1673,2105,1
-1349.562471035809,-128.4451286330323,36.213661912897884,284281.7000609167,74327.61326932334,72114.02081709262,111,1593,2028,1
-1347.6022131683278,-130.44603173665044,31.695866506004432,283020.21597072494,73858.55882970405,68813.66613970199,95,1590,1952,1
-1343.2569220913206,-133.83213362570453,26.311600729139435,281712.32896570925,73434.37683868619,65704.74029830596,160,1641,1898,1
-1336.383880096516,-138.56851988596804,20.078705300939504,280393.8903015322,73063.75420686227,62827.07926295368,157,1684,1826,1
-1326.8603583270844,-144.5789476950318,13.041645812177721,279106.54568323394,72757.43580005804,60221.32133679354,155,1726,1774,1
-1314.5919698416678,-151.74933762332094,5.270634119912298,277897.14802573115,72528.33357331714,57928.76595225665,158,1784,1751,1
-1299.5200745965797,-159.9233122325291,-3.140861287205878,276817.29792777135,72391.49990054258,55991.332554808854,169,1781,1712,1
-1281.6277604374645,-168.8858437196662,-12.07415285343088,275922.81327130547,72363.85456850598,54451.25976879487,139,1869,1659,1
-1260.942149552805,-178.34418943603023,-21.37497701595982,275272.7794008715,72463.41810796625,53350.35617291726,96,1924,1588,1
-1237.5300751532786,-187.92399537490522,-30.843551415288463,274928.1312534891,72707.96612291364,52729.15967564526,100,1953,1573,1
-1211.488421606571,-197.19320150237309,-40.23695497197308,274949.4158994868,73113.1364991455,52626.242176634,128,1927,1561,1
-1182.9365447439336,-205.70721318997965,-49.283967079577806,275393.3801655612,73690.2865010627,53077.47684273329,82,1905,1567,1
-1152.0164018732235,-213.05124884512347,-57.70242937045172,276309.2413179459,74445.04759591068,54115.1998261711,94,1929,1543,1
-1118.8980231267685,-218.8657370349156,-65.21411247189062,277735.3524774058,75377.3305483243,55767.265363768296,113,1925,1530,1
-1083.7850319097836,-222.86051209172848,-71.56009182240555,279696.00847541133,76482.43518796642,58055.948769279305,118,1923,1530,1
-1046.9176739974405,-224.82323865261486,-76.51521788549809,282198.93298706017,77752.3344479235,60996.99814817973,64,1943,1506,1
-1008.5719592147992,-224.62341157199532,-79.89692860203985,285234.43532297155,79176.80201796663,64599.239444188344,51,1955,1490,2
-969.0541815748238,-222.21537665621284,-81.56778199493415,288776.14112243935,80744.67056334787,68864.68299750867,48,2004,1459,2
-928.6946416815084,-217.64025258918633,-81.43259116436633,292782.41856426856,82445.04757835748,73788.69328420838,30,2010,1451,2
-887.8436524977153,-211.02079284978245,-79.43080723988926,297198.1719917034,84268.13290347997,79360.07732632369,22,2011,1452,2
-846.8676831114532,-202.5463144637942,-75.52650089852925,301957.1669570588,86205.71793243977,85561.30147882088,17,2009,1452,2
-806.1445885982945,-192.45376017010707,-69.70195403868779,306984.22724943474,88251.3472555224,92368.73959317188,18,2013,1451,2
-766.0558800485966,-181.00978203467858,-61.96092108903961,312197.006788287,90400.03458310437,99753.03615576353,28,2017,1453,2
-726.9737457334417,-168.49354331820334,-52.33954190357324,317508.1598627646,92647.73584265911,107679.97530083799,31,2012,1452,2
-689.2489280510647,-155.18327580834918,-40.91574730020525,322827.8158066716,94990.89241941128,116111.46178408935,2,2012,1451,2
-653.2047060083372,-141.34728395343484,-27.810387866401978,328066.0211718516,97426.28205100089,125006.27020398506,41,2013,1452,2
-619.1342312769182,-127.23447754443174,-13.18123392055634,333135.51935218525,99951.19688332341,134320.91701595933,41,2012,1452,2
-587.2997431884623,-113.06568845240568,2.7843684902542574,337954.23763483914,102563.62701728303,144010.39393249914,31,2011,1452,2
-557.9338677080729,-99.0317165827095,19.876089969883957,342446.90009350947,105262.19685770459,154028.60422754212,21,2012,1454,2
-531.2420872832272,-85.29839263799398,37.86819815081702,346546.4090553781,108045.94209457039,164329.03819877602,23,2011,1454,2
-507.40614405226063,-72.01362278517334,56.52657721174352,350195.017704381,110914.02136018155,174865.39815374624,21,2010,1451,2
-486.5863507013646,-59.311653205227906,75.61341345065976,353344.8910236611,113865.40846404056,185591.88553491156,23,2010,1452,2
-468.92081523594334,-47.3138262440029,94.89120304473929,355958.3627789825,116898.6635615363,196463.69449408448,22,2010,1452,2
-454.52368739187585,-36.12843664208921,114.12646719155704,358008.1208718169,120011.74086193417,207437.5204074517,29,2010,1452,2
-443.4840707148262,-25.851616425723932,133.0935597912128,359477.3680407965,123201.73222365188,218471.7985658247,0,2010,1452,2
-435.8641702982978,-16.569131455732247,151.5797418124036,360360.15282791184,126464.5342238236,229527.11007074665,22,2010,1451,2
-431.696764392055,-8.35819867094169,169.38974944793813,360661.7801649398,129794.42416604896,240566.48693160905,26,2010,1451,2
-430.9838208988871,-1.2884352806961867,186.34972710277637,360399.0403780615,133183.6598237564,251555.30596743044,35,2009,1455,2
-433.6964928597303,4.577969635850917,202.31329764454122,359600.19455063326,136622.28478362883,262461.2090844004,35,2010,1453,2
-439.7759837855774,9.185858612849826,217.16821340741095,358304.6801178846,140098.04451850685,273253.9080846324,24,2010,1452,2
-449.1355968322591,12.486725312025797,230.8395488265078,356562.2169516791,143596.2879102967,283904.70269168814,27,2009,1451,2
-461.6635651838735,14.439740823879852,243.28844096302598,354431.1132069675,147099.92225568971,294386.1812678533,8,2009,1452,2
-477.2249683270759,15.01454510781372,254.5078265538272,351976.3293047393,150589.420198783,304672.0187795178,6,2008,1453,2
-495.6627847260039,14.195704918634208,264.51767441957224,349267.586977321,154043.04269886258,314736.7558644404,20,2009,1452,2
-516.7996492338038,11.988469398351425,273.3612949660634,346377.11959597614,157437.5148247381,324555.9427899502,29,2009,1451,2
-540.4398399657234,8.423804527869905,281.1023480500529,343377.369568031,160748.82770232097,334106.35173405305,8,2009,1452,2
-566.3710370791086,3.560924253161331,287.82177717216445,340338.8844151874,163952.92411617702,343365.9601694383,0,2010,1452,2
-594.3667386002977,-2.5126618432522982,293.6148575001871,337327.9417396879,167026.5164712554,352314.0706489184,21,2009,1451,2
-624.1884949509447,-9.683074906209777,298.5891974934291,334404.2424516918,169947.89319202196,360931.38776741136,39,2009,1452,2
-655.5881844867286,-17.814467691061637,302.86303134003543,331619.01465372334,172697.48023231977,369199.84824386734,38,2009,1453,2
-688.3121747894411,-26.756218409781717,306.5616641341855,329013.0512694683,175258.3370452896,377102.5981283447,42,2009,1451,2
-722.1058293154593,-36.35095114781994,309.81179048808025,326614.9698219604,177616.55223583538,384624.0169456718,37,2008,1451,2
-756.7177037142601,-46.44373555280053,312.7348785988827,324440.3377752914,179761.47245249577,391749.6248534902,43,2008,1452,2
-791.9054806302122,-56.895175995908765,315.44002173766046,322491.5240787606,181685.95302312428,398466.1903723637,3,2008,1453,2
-827.4413801937737,-67.59531611718397,318.0175974206859,320758.13633400673,183386.53206360736,404761.87921498745,5,2009,1452,2
-863.1144066626791,-78.47395590023568,320.5354385469546,319218.4284670083,184863.2224514074,410626.20241846086,2,2008,1452,2
-898.7310460862718,-89.50779195797129,323.0371628687352,317841.8374787244,186118.87463478436,416049.98814899084,0,2009,1453,2
-934.114620761746,-100.72377948173492,325.5415219042544,316591.97256418987,187158.28860956433,421025.2772964189,7,2008,1452,2
-969.1029537676654,-112.19631075649085,328.0426127582002,315429.7287175655,187987.16898259785,425544.9319080257,30,2004,1457,2
-1003.5461354160233,-124.03874026577795,330.5118457654438,314316.83803894895,188610.97374709134,429602.12853604276,10,2005,1458,2
-1037.304627410782,-136.39233384475395,332.9019635340512,313219.1981461683,189033.96279113277,433189.80953053053,6,2006,1455,2
-1070.247322017453,-149.41336847796632,335.15305014408887,312109.14635731693,189258.71053063028,436300.0542114673,2,2008,1453,2
-1102.2501887726298,-163.25741674779957,337.20059353061777,310966.9113454111,189285.99090607377,438923.48558640573,0,2012,1452,2
-1133.1944793582245,-178.06441212313572,338.9830292564622,309781.4038105764,189114.87510834684,441048.80712161685,10,2006,1455,2
-1162.9639551296902,-193.94885442582043,340.445980722245,308550.0605501705,188743.05429422573,442662.5435418862,12,2005,1457,2
-1191.4430372643765,-210.99426975795546,341.54423937500593,307277.8052448256,188167.4329061143,443749.05559221347,35,2006,1456,2
-1218.5164401215284,-229.2496117153034,342.24362494450406,305975.67947947903,187384.84705100293,444290.72833578236,18,1998,1463,3
-1244.070178736143,-248.72654216526377,342.52372585786486,304659.3014373232,186392.75533295836,444268.2770386042,19,1999,1462,3
-1267.9945506901886,-269.39656395380996,342.381085076804,303346.7061276717,185189.8673733925,443661.3039308611,9,1966,1487,3
-1290.1873894848654,-291.1874276930745,341.83092099265417,302055.80654609797,183776.5869841678,442449.0703429721,10,1964,1491,3
-1310.5563273747998,-313.98003737025505,340.906192458338,300802.4219569278,182155.19360648195,440611.2469810829,0,1960,1495,3
-1329.0212272332124,-337.60767788156573,339.65472771632494,299599.05310623767,180329.79053182882,438128.5677316409,1,1962,1495,3
-1345.5163076394533,-361.85761685887024,338.135963406705,298453.9011295037,178306.05270336132,434983.4678687455,0,1963,1495,3
-1359.9918576400905,-386.4759061830716,336.41721682299567,297370.08118067123,176090.9557425472,431160.71212836175,9,1967,1491,3
-1372.417362386791,-411.17655277702175,334.56800647163124,296345.21773841523,173692.60496552382,426647.9741742086,11,1966,1488,3
-1382.7851262348465,-435.65128329958935,332.6529426194583,295371.3403870188,171120.09190662234,421436.4172982663,2,1965,1489,3
-1391.1119227847767,-459.57669643294827,330.72386984380944,294435.0831354672,168383.44924144648,415521.400303999,2,1958,1499,3
-1397.4380441317041,-482.6209029107924,328.81052566862746,293518.4578997839,165493.7598264005,408903.3272308251,1,1970,1485,3
-1401.8240671286387,-504.449521037552,326.9117400642196,292600.31552190747,162463.28228063433,401588.54623705667,1,1970,1485,3
-1404.3466135682213,-524.7281663097908,324.9907046524185,291658.1079534853,159305.54033292126,393590.2806171664,3,1968,1489,3
-1405.0948588960532,-543.1221490914377,322.97570466221094,290669.7612532624,156035.2437618134,384929.42039382504,4,1952,1506,3
-1404.1687640835787,-559.2960357645817,320.7661206309894,289615.8448773691,152667.85811436438,375634.91220037814,6,1952,1506,3
-1401.679252721562,-572.9134663899011,318.2415056517113,288481.6198282409,149219.07661433044,365743.9247380567,0,1962,1493,3
-1397.7494684986405,-583.6367518628244,315.2707198104765,287258.3373187274,145704.4632629149,355301.7557039688,1,1941,1514,3
-1392.5158575314679,-591.1265904038814,311.7188038438015,285943.76826437033,142139.2150921355,344361.1562024361,0,1966,1488,3
-1386.1276299908427,-595.0431806104053,307.4504546670736,284542.08839761035,138538.2093719126,332981.662094715,0,1949,1506,3
-1378.742014864923,-595.0532482391638,302.33512480364743,283062.9018148542,134916.61080755427,321229.3659757957,0,1936,1514,3
-1370.515263019819,-590.8459102646473,296.2615789940896,281519.326487672,131290.9598238256,309176.5896676856,0,1933,1515,3
-1361.594319174493,-582.1538580822013,289.1573023552597,279925.7635505856,127680.39656333701,296901.5217849901,0,1934,1515,3
-1352.1124636714824,-568.7782507550495,280.99948816621185,278295.695705806,124107.58188885332,284487.84824197774,0,1936,1512,3
-1342.1891206204307,-550.616114482213,271.81451376395137,276639.40131623374,120598.99887685663,272023.7974457041,1,1940,1508,3
-1331.9350355257639,-527.6829114964758,261.67046120037776,274962.38465264573,117184.56568349796,259600.94458788063,0,1940,1509,3
-1321.460132174457,-500.12558567344973,250.66661370191798,273265.39178018196,113896.54640047987,247313.1777535409,0,1941,1512,3
-1310.8774510161516,-468.2283158354613,238.92358261652106,271545.6229370808,110767.79205766584,235255.39375625705,0,1941,1508,3
-1300.299677736295,-432.41482699990087,226.57312090973804,269798.563611108,107829.20646521116,223521.13221407856,0,1945,1505,3
-1289.8280373702992,-393.2491128496314,213.74783943901218,268020.14841471426,105106.61849046397,212198.79815534322,0,1960,1497,3
-1279.537507063683,-351.43367534402626,200.57651529863875,266208.4331352681,102618.43997206213,201368.00259031972,22,1970,1487,3
-1269.46384298127,-307.80253692582227,187.184348513276,264363.8299004517,100375.30910834997,191097.1242465779,225,2012,1451,3
-1259.5945219013126,-263.31056240776616,173.69270419141677,262487.9702969397,98381.24827520215,181441.21729111622,707,2012,1453,3
-1249.866214732753,-219.02391991767962,160.2154618363579,260582.17503995326,96635.19341284515,172440.38672625076,1327,2011,1453,3
-1240.1716731958916,-176.09402024656455,146.84689916627957,258646.34690618154,95132.26211200433,164119.24908789832,1890,2007,1453,3
-1230.3729232337566,-135.68640809304785,133.64025733057667,256678.65762301203,93864.68151931599,156486.94629290607,2316,2008,1456,3
-1220.3146151302299,-98.87140795300482,120.58587223332684,254676.48937470984,92822.27273410733,149537.6989404646,2555,2008,1455,3
-1209.8387365485867,-66.49137428865622,107.59340122451712,252639.63439983068,91992.29348952575,143252.79293380128,2748,2009,1456,3
-1198.8054325489475,-39.01718282020812,94.49262089302634,250576.60238089206,91359.33456738167,137604.90874106396,2818,2008,1454,3
-1187.1176214088468,-16.465313276151566,81.08380701758855,248512.40043605134,90906.62470570003,132564.66824106392,2828,2012,1452,3
-1174.7489917836342,1.531539457254693,67.22946772663639,246493.28445450542,90618.55878599278,128106.8919078262,2838,2013,1452,3
-1161.7728554002836,15.514045559293143,52.93337779782021,244583.7280215244,90482.45257369056,124212.94738967787,2787,2016,1455,3
-1148.3730083958299,25.9879556965552,38.36457740503559,242855.2006066331,90487.97696104825,120867.91732120042,2720,2015,1454,3
-1134.8227552678513,33.340031392232206,23.82131166573555,241373.18132262933,90624.60976366207,118055.15394450945,2694,2015,1451,3
-1121.4346688543114,37.876216782319034,9.65797187725952,240188.8906453004,90878.80419251556,115751.97303978294,2625,2013,1454,3
-1108.4958396271343,39.907597917300436,-3.7910404401035107,239336.30820723186,91232.54485408276,113928.33028380094,2594,2017,1452,3
-1096.220456414188,39.806695799763276,-16.25601484023054,238832.53064004856,91664.03276946687,112548.4198941714,2622,2013,1452,3
-1084.7404259642271,37.99941411124391,-27.533015974199003,238679.68394253578,92150.19929110313,111574.1381691535,2513,2009,1454,3
-1074.1215362148769,34.916325301306244,-37.463858635032615,238866.68585501667,92669.8624826415,110968.78746039227,2520,2028,1454,3
-1064.3835795926175,30.947025931155846,-45.922918956470355,239370.18617845775,93205.82742242602,110699.39097302449,2468,2020,1452,0
-1055.5162939567645,26.415961907686366,-52.82215617420169,240155.66406820813,93745.05410735373,110737.03983926862,2551,2022,1454,0
-1047.4935115821468,21.571141758327094,-58.129484925532715,241179.90262687742,94277.62848367664,111056.04677633397,2543,2022,1455,0
-1040.2850884670343,16.579792598877003,-61.88511948814068,242394.39407997183,94795.79335694805,111632.91721408602,2583,2027,1454,0
-1033.8626690159394,11.535564945710133,-64.20230688687082,243748.98952771394,95293.63531292243,112445.56236924927,2613,2032,1454,0
-1028.1994258105178,6.478173510381054,-65.25221259073562,245195.8836502787,95767.18570754222,113472.71721266505,2674,2039,1453,0
-1023.266792731209,1.415826285351715,-65.24371300444136,246693.04578569156,96214.37752312385,114693.56322353294,2719,2043,1455,0
-1019.0296032010406,-3.6596229123537514,-64.40535637877714,248206.16123334982,96634.46628012428,116087.6781073483,2812,2058,1453,0
-1015.4403764971314,-8.765819261594551,-62.96940916875567,249709.42047935707,97026.98531107136,117635.31130612097,2872,2069,1453,0
-1012.4357724354958,-13.927800454587901,-61.159359656062975,251185.4541154895,97390.83587791944,119317.76219415701,2923,2060,1455,0
-1009.9386789238127,-19.175588314255876,-59.18100445910173,252624.55161591194,97724.00945729818,121117.55450860824,2960,2069,1455,0
-1007.8662670231103,-24.53618539027347,-57.21270672779626,254023.43790641008,98023.95721164063,123018.33883036836,2952,2084,1455,0
-1006.140521678732,-30.020319032301455,-55.394555399746416,255383.68255030594,98288.3622485539,125004.68312667067,2942,2082,1453,0
-1004.6963247904228,-35.61083646556587,-53.82139535476032,256710.02051904282,98515.87215658124,127061.8614835617,2901,2090,1454,0
-1003.4843085035827,-41.25930963129805,-52.54336735024245,258008.7997137452,98706.44665328479,129175.70129292725,2873,2098,1454,0
-1002.4686262381051,-46.89096092880552,-51.57308057153683,259286.44097189675,98861.36342433612,131332.51758105107,2775,2096,1453,0
-1001.6219415104227,-52.412872661635376,-50.895216038279585,260548.14828897495,98983.05647872548,133519.02340743758,2695,2100,1451,0
-1000.9204942761969,-57.72234929094467,-50.47673645336391,261797.25623854913,99074.85170591595,135722.14995492352,2631,2092,1455,0
-1000.3407505642969,-62.715772800463775,-50.27830711456059,263035.1568638697,99140.60523316298,137928.85769338286,2507,2106,1456,0
-999.8581361834024,-67.29656654668227,-50.264202716126114,264261.50098576525,99184.31836995324,140125.9742222651,2403,2125,1463,0
-999.4478462903959,-71.38104390955013,-50.407829117575154,265474.49041417305,99209.80565357285,142300.13465732255,2336,2120,1459,0
-999.0871737275223,-74.90368796544733,-50.69393813113293,266671.2182537896,99220.43393000696,144437.93584060026,2218,2139,1461,0
-998.7581697150644,-77.82154485792864,-51.11879920103388,267847.94870604464,99218.97971497646,146526.1755817739,2173,2133,1460,0
-998.4489145060653,-80.11565599765241,-51.688183961205766,269000.3161025425,99207.60390163104,148552.06548806,2052,2134,1455,0
-998.1525315317479,-81.789323940622,-52.41371356895097,270123.5821735788,99187.85139882588,150503.49373806865,1899,2154,1456,0
-997.8648714257907,-82.86456831698698,-53.30926816712398,271212.9128594202,99160.62087100188,152369.2594233294,1828,2160,1457,0
-997.5824473595832,-83.37766843719605,-54.38820606353724,272263.57583330607,99126.11358299883,154139.22623216594,1781,2148,1455,0
-997.3013055548746,-83.3740293092055,-55.66072058319391,273271.0852935891,99083.78552782422,155804.51829156597,1742,2173,1458,0
-997.0166711930667,-82.90352854790365,-57.13134540248451,274231.23484687967,99032.35016395345,157357.6888286288,1502,2175,1459,0
-996.7230760835513,-82.0174461021715,-58.796860809399675,275139.9360495162,98969.91998075768,158792.76184416472,1485,2196,1468,0
-996.4148620011149,-80.76685934565177,-60.64409142235744,275992.94384995115,98894.31572114668,160105.25195385877,1459,2208,1466,0
-996.0872482331355,-79.20255965595435,-62.647864040813225,276785.61834342714,98803.40867440763,161292.18803995798,1415,2224,1635,0
-995.7381652449574,-77.37670713605726,-64.77057450581457,277512.84491616604,98695.34230027713,162352.0769972647,1277,2231,1633,0
-995.3702930210131,-75.34550288999493,-66.96413208974306,278169.15198907146,98568.61183520459,163284.81876298445,1155,2232,1632,0
-994.992005730582,-73.17143494411417,-69.17337891973277,278748.9372396921,98422.04680977084,164091.5797869138,1124,2243,1632,0
-994.6164723495409,-70.92398776982765,-71.34019112654249,279246.7643189008,98254.74835626125,164774.6329558324,973,2266,1639,0
-994.259366711707,-68.67864129846794,-73.4081258331582,279657.76543528045,98066.04200785233,165337.21173315865,1020,2290,1636,0
-993.9364696029699,-66.51472030945057,-75.32638090889023,279978.0319147252,97855.4953722457,165783.4019123445,958,2321,1634,0
-993.6620032028184,-64.51254681280167,-77.05222236235886,280204.90330433287,97623.0033659289,166118.06868312825,821,2325,1637,0
-993.4474670859233,-62.75034729819595,-78.55267985068362,280337.2471957404,97368.8850797439,166346.81090071265,816,2345,1643,0
-993.30066495228,-61.30203590442274,-79.80561298850736,280375.73336012196,97093.9400637186,166475.9143442656,775,2380,1638,0
-993.224919726958,-60.23601763932357,-80.79917812591826,280323.03448047,96799.47453281692,166512.26412111172,676,2396,1638,1
-993.2187431896335,-59.613791081682365,-81.5295129714519,280183.97088044434,96487.3359822992,166463.20433033654,656,2407,1644,1
-993.2764815654376,-59.48793444101913,-81.99777977254621,279965.5794241353,96159.951939757,166336.3830857718,673,2426,1644,1
-993.389897164605,-59.899528955010766,-82.20759902586886,279676.97621135693,95820.29187528678,166139.59795560897,688,2440,1640,1
-993.549509022903,-60.87490153927716,-82.16299422985483,279328.9445720415,95471.69201940946,165880.61749198183,625,2458,1641,1
-993.7446499479194,-62.42309730141084,-81.86727552030568,278933.3825875032,95117.63169834671,165567.02456396728,423,2480,1647,1
-993.9630318514753,-64.53688790108663,-81.32379856355932,278502.69952460396,94761.5883722719,165206.1529552695,524,2501,1649,1
-994.1913076990603,-67.19818389067315,-80.53853098001684,278049.15025147836,94407.00226779275,164805.10503310917,504,2523,1651,1
-994.4167263598688,-70.38431773601147,-79.52248413392725,277584.32687698683,94057.32248639136,164370.79102850126,480,2533,1654,1
-994.6290262466365,-74.0705954596078,-78.29189354430312,277119.03183901927,93716.0476724119,163909.90080875703,461,2546,1657,1
-994.821874129849,-78.22873325421283,-76.86665425956573,276663.3985616864,93386.66958373546,163428.74856383493,495,2562,1655,1
-994.9934495487646,-82.82380845059453,-75.26906954277425,276227.0094872288,93072.53963916181,162933.07588771704,457,2578,1651,1
-995.1462564375229,-87.81167239485127,-73.52325681191583,275818.85842364084,92776.70528762054,162427.9187815002,433,2595,1652,1
-995.286590772692,-93.13801108237159,-71.65437610384942,275447.10804930195,92501.7223264334,161917.5303476186,401,2603,1655,1
-995.4241457086993,-98.73947811446179,-69.6876358164807,275118.76154880715,92249.50975401823,161405.34353930323,294,2619,1661,1
-995.5722482280037,-104.54636260757842,-67.64717754547958,274839.39194660675,92021.31381640499,160893.95944329293,292,2641,1660,1
-995.7486582674929,-110.48597532040093,-65.55470086155715,274612.9496896201,91817.7349216472,160385.11094889132,283,2668,1659,1
-995.9761107505765,-116.4854556045506,-63.42831833765431,274441.66719934944,91638.74784582319,159879.6106614424,214,2673,1659,1
-996.2819139062709,-122.47357266461073,-61.28209147166469,274326.0897996349,91483.7062106349,159377.31715374434,137,2684,1662,1
-996.6968400214048,-128.38248704530503,-59.12586882800574,274265.1936482119,91351.36261755257,158877.11022798752,169,2695,1677,1
-997.2541329130825,-134.14950080206526,-56.96498161980445,274256.53944299475,91239.9272931894,158376.8859578406,147,2676,1710,1
-997.9889335461401,-139.71840907715622,-54.799620618784395,274296.4836730018,91147.14817015607,157873.58860587428,145,2693,1719,1
-998.9377552770173,-145.04074750141908,-52.62401380409306,274380.4748759806,91070.38091621382,157363.26185753234,65,2690,1730,1
-1000.1378539919107,-150.07662602983305,-50.425993842108404,274503.34685292887,91006.6376726553,156841.1144247697,71,2674,1763,1
-1001.6267799079874,-154.7948382053897,-48.18754572473273,274659.53856214887,90952.63427399794,156301.60879848478,68,2687,1765,1
-1003.4423440784069,-159.17281665401433,-45.88649776233167,274843.28208528203,90904.85532626217,155738.567807519,35,2672,1783,1
-1005.6228175255775,-163.1967226346975,-43.49875717678406,275048.76802943705,90859.6198075221,155145.28986403765,56,2677,1806,1
-1008.2069130986437,-166.8614736583983,-41.00018446233817,275270.29493812675,90813.13108197968,154514.6665083435,40,2686,1803,1
-1011.2333276614465,-170.17059165055053,-38.36797760033505,275502.4491351759,90761.52545789363,153839.30251129894,21,2704,1815,1
-1014.7400104037414,-173.13560501444428,-35.581718411394895,275740.2843683853,90700.9329492825,153111.64190495893,46,2740,1823,1
-1018.7635372993307,-175.77462905842148,-32.62387161903293,275979.46307456866,90627.56111641391,152324.08651809292,40,2741,1847,1
-1023.3388781718792,-178.11026973076554,-29.479848043851053,276216.3827877266,90537.8021222878,151469.09270477662,16,2738,1858,1
-1028.4994146850265,-180.16793138450927,-26.139309100370507,276448.267253042,90428.30808769596,150539.2619265727,63,2746,1870,1
-1034.2766528817197,-181.97547441540198,-22.601192247528935,276673.2138917728,90295.97414181771,149527.42371533593,43,2734,1895,1
-1040.6989671715205,-183.56345428733664,-18.881040006583362,276890.2739122746,90137.87272690046,148426.67933825203,13,2705,1949,1
-1047.7896636742853,-184.96423575441807,-15.014192658109371,277099.5935662194,89951.31551173885,147230.43514046914,22,2721,1967,1
-1055.5657627250462,-186.20926629834418,-11.04887017439644,277302.54290669464,89734.21692777688,145932.46685352188,14,2696,1993,1
-1064.0381516601008,-187.3250108611766,-7.030220936317226,277501.7291478089,89485.63221604204,144526.98603291187,20,2699,2005,1
-1073.21291679887,-188.32791641960594,-2.985395926036279,277700.8027344377,89206.0357660274,143008.6989465278,26,2690,2022,1
-1083.0933568136686,-189.21882966749877,1.0816444906053648,277904.0220758012,88897.02079065357,141372.84321648674,44,2654,2068,1
-1093.6808954462124,-189.97898008810816,5.187136000515551,278115.65282356273,88560.5566317398,139615.16678343844,35,2670,2065,1
-1104.9736611273538,-190.56993839364327,9.360720229057842,278339.2481978117,88198.32543508071,137731.92589455083,41,2672,2114,1
-1116.9642461214216,-190.93736693390343,13.63695814365051,278576.8017997947,87811.49954464036,135719.9869249016,19,2685,2101,1
-1129.638359421007,-191.0162672740062,18.04832773201416,278827.9694907273,87400.83837794108,133576.98855120174,52,2570,2176,1
-1142.9742947988934,-190.73682567621262,22.621627085193015,279089.59356265893,86966.85598440233,131301.4611393225,17,2595,2177,1
-1156.942708414678,-190.03125801643858,27.376035954129897,279355.5143321983,86509.9494767429,128892.86331502385,32,2639,2200,1
-1171.5057065956464,-188.83991460923414,32.32078197778018,279616.61128385295,86030.44486323906,126351.62903090662,22,2562,2259,1
-1186.614165797015,-187.11474441094768,37.451765130083785,279861.1488826095,85528.55387202444,123679.24817309508,34,2484,2328,1
-1202.204390910686,-184.82084053818323,42.74796878848469,280075.4397625456,85004.31174501077,120878.30492719187,28,2391,2423,1
-1218.1958363875392,-181.9367599849776,48.16959985704665,280244.5704822348,84457.59174946144,117952.54129364654,27,2331,2432,1
-1234.489489051835,-178.45349110761978,53.65871233849622,280352.9949292231,83888.18770970366,114906.94963681808,27,2337,2423,1
-1250.965537745863,-174.37359974234798,59.14064938920527,280385.05941704515,83295.88189681194,111747.77562054976,50,2321,2430,1
-1267.4804583619039,-169.7122963373746,64.52445526842916,280325.4592811597,82680.50279792762,108482.53403876488,31,2325,2463,1
-1283.8658294794282,-164.5001021381727,69.70333073225272,280159.66286278126,82042.0634784058,105120.12289826779,26,2255,2517,1
-1299.930074179244,-158.78672264833745,74.55742716104204,279874.45812715904,81381.003504683,101670.91418092987,34,2219,2536,1
-1315.4615038881725,-152.64543865707807,78.95862715064148,279458.565905283,80698.4360018954,98146.85262386197,11,2223,2508,1
-1330.2330128734682,-146.17536640189144,82.7764933215717,278903.21500926325,79996.28025663311,94561.60852007387,36,2169,2487,1
-1344.0098739026669,-139.49992427970375,85.88574683618614,278202.7099436302,79277.2512577229,90930.68566927394,31,2120,2496,1
-1356.55744313301,-132.7629442648727,88.17326788014779,277354.90728433937,78544.76946221819,87271.56986904559,40,2097,2465,1
-1367.6456374863658,-126.12371397800814,89.54196671647696,276361.46554393636,77802.80121914293,83604.01628678292,22,1987,2278,1
-1377.0515462538701,-119.75082541638528,89.91192397434466,275227.8930659143,77055.60572089268,79950.3784788659,25,1901,2283,1
-1384.5606275554312,-113.81645692106422,89.2199587744375,273963.54092941567,76307.52354174142,76335.96636965434,36,1891,2274,1
-1389.9653324085853,-108.49223097068135,87.41776234216924,272581.73041520047,75563.00359204279,72789.40373108785,67,1822,2218,1
-1393.0626751206053,-103.94467019480233,84.4691195623865,271100.13651484775,74826.94698283587,69342.76743293129,77,1791,2175,1
-1393.6538470438802,-100.32934515242009,80.34853175057316,269541.39833606797,74105.29608553852,66031.46275787872,91,1699,2117,1
-1391.5488088896986,-97.7836386713834,75.04553250765683,267933.86254942924,73405.61301904185,62894.052376919004,81,1587,2065,1
-1386.5772156565283,-96.41761225499828,68.57596007191655,266312.2677384643,72737.29035261745,59971.99556812439,99,1523,2040,1
-1378.6020455659977,-96.3048203404049,60.99278398010481,264718.0760675721,72111.18270909488,57309.08352202248,135,1555,2014,1
-1367.5301980726667,-97.47230012412895,52.387860011420365,263199.42256819905,71538.90726509976,54950.803676270865,147,1623,1912,1
-1353.3158051999592,-99.88405940887569,42.885579159324884,261810.7563434197,71032.35627341564,52943.85191549482,147,1664,1868,1
-1335.9548165648916,-103.41876797995808,32.636972948227324,260612.05797988753,70603.66914050646,51335.616138422025,131,1723,1781,1
-1315.4767053951305,-107.85257332677392,21.820996322804497,259667.60777229496,70265.44880277151,50173.65245144141,113,1863,1679,1
-1291.9400980845403,-112.85945186725064,10.650465568751654,259043.73049739035,70030.68726820857,49505.156331164944,108,1957,1605,1
-1265.4314378749393,-118.0330393147306,-0.6257682042281834,258804.79003772713,69912.00029442187,49376.17705088492,99,1933,1583,1
-1236.0650369888579,-122.92220283893714,-11.730573868616009,259008.38690084964,69920.42831100868,49830.659030781106,128,1947,1574,1
-1203.986198889307,-127.07616767873128,-22.379930602774184,259700.89193739448,70064.33867652793,50909.42782553656,69,1929,1550,1
-1169.377238585499,-130.09828595175924,-32.31387410104581,260913.36323606738,70348.76604485296,52648.9669283558,110,1924,1547,2
-1132.4637854512036,-131.69009064444958,-41.320094379069104,262658.75625277095,70775.4843244532,55080.16160383398,54,1938,1518,2
-1093.5181292447644,-131.667053014272,-49.23778806516256,264931.76183419523,71344.00239135038,58227.33002022424,53,1929,1531,2
-1052.8581014183487,-129.95162124930968,-55.946977771241016,267711.014228061,72053.10024355265,62107.517377471355,23,1941,1516,2
-1010.8433211332125,-126.55860129955131,-61.35483389247867,270962.10474137886,72901.92910212713,66729.9514014509,25,1950,1503,2
-967.8682295835952,-121.57868140628554,-65.3845549885369,274640.54316642333,73890.0496351838,72095.7481318806,14,2002,1456,2
-924.3505645441796,-115.1596705264598,-67.96756412722073,278694.73143263004,75016.73575043531,78197.92978279266,0,2009,1453,2
-880.7204799029997,-107.49011881996759,-69.0403772153004,283068.18885422935,76280.27152842774,85021.50822724983,0,2011,1452,2
-837.4124173971629,-98.78974829206004,-68.54789870066942,287700.39976352255,77677.70726091617,92543.62315511362,0,2010,1452,2
-794.8559175914351,-89.30287898680216,-66.45276965695375,292526.9766067739,79205.04828023221,100734.02345155519,16,2014,1451,2
-753.4670317743244,-79.29085509374956,-62.747699952794264,297479.7858488728,80857.53468844845,109555.61107513274,23,2011,1454,2
-713.6415288733788,-69.02174602329875,-57.46749789116036,302487.66493244446,82629.88726515848,118964.96457646518,26,2012,1453,2
-675.7469976495058,-58.7569998266324,-50.6974507462439,307478.41906421666,84516.67681801306,128913.30324372416,27,2012,1453,2
-640.116384170168,-48.739745490482775,-42.57391114332622,312381.45715706795,86512.74683299185,139347.51992031196,12,2009,1457,2
-607.0458585156741,-39.18784878011095,-33.27526365380905,317130.27456914133,88613.51927728452,150211.0273744406,0,2010,1452,2
-576.7951858835137,-30.289702351218107,-23.006041329340796,321664.9298288777,90815.2202369826,161444.93273712762,11,2013,1451,2
-549.5900165039972,-22.202355843282234,-11.981933735724013,325933.9738298352,93114.96168496524,172989.1033791316,24,2011,1453,2
-525.624873778463,-15.052360810089674,-0.4207582617420253,329895.15162550856,95510.6031074261,184782.73819842545,29,2010,1454,2
-505.0634719153146,-8.93708783912355,11.463542205046243,333515.3174373302,98000.55341426811,196765.05642349645,32,2008,1454,2
-488.03640168761547,-3.925497945338379,23.46685308553826,336770.0219661342,100583.61784723544,208875.93696915105,23,2010,1451,2
-474.6388135819346,-0.06130591163678134,35.40133392101559,339642.8604660076,103258.85879602563,221056.37272230638,30,2010,1452,2
-464.9297172623218,2.629203679040564,47.10190388723418,342124.7696251131,106025.41340149482,233249.37318582792,19,2009,1452,2
-458.9335062503606,4.128238802318065,58.429419543390196,344213.43683526135,108882.13587221113,245400.84429666263,8,2011,1451,2
-456.6426240276502,4.42247165111898,69.2692009352342,345912.91290771135,111827.03267470546,257459.88895577556,28,2010,1452,2
-458.0195319787312,3.50569097146696,79.52865770677955,347233.4807954026,114856.67056200984,269379.07301721984,9,2010,1448,2
-462.9974450869859,1.384201755634628,89.13690493892777,348191.64894102147,117965.71954337496,281114.5743534092,20,2009,1452,2
-471.4805127145431,-1.92018109747898,98.04569244494512,348809.97090673906,121146.72739300625,292625.98782280367,14,2008,1453,2
-483.34451635526875,-6.370457167886475,106.23043096749223,349116.50410735945,124390.15452197428,303876.26833631424,26,2010,1452,2
-498.43815836666886,-11.915972377502701,113.6904017730098,349143.97034632426,127684.48713093012,314831.63137225236,24,2010,1452,2
-516.5849815374369,-18.494978668592402,120.44727132074226,348928.56630252587,131016.3901378747,325461.15950493264,26,2010,1451,2
-537.5868888095046,-26.038740794078386,126.54220584184273,348508.3165872945,134371.09188278668,335736.5547184287,26,2009,1452,2
-561.2281224847827,-34.475114574527645,132.03253200082648,347921.3650226457,137732.85021905167,345631.9405669515,23,2009,1451,2
-587.2780179500996,-43.729335106526534,136.9880155035785,347204.4740475012,141085.3343980425,355123.5864709197,22,2009,1452,2
-615.4933007589638,-53.72224448929581,141.48686625765143,346391.53045989963,144412.07414233967,364189.96783529036,36,2008,1452,2
-645.6198557456178,-64.36755498498886,145.61266043343727,345512.25591969857,147696.85684957512,372811.9321048081,29,2008,1451,2
-677.394087027757,-75.57014619386665,149.45285914733174,344591.33065501956,150923.94846904726,380972.66138802125,33,2010,1454,2
-710.5456635429684,-87.22663316119733,153.0983705283805,343647.65354095947,154078.3392184124,388657.7239065294,26,2009,1452,2
-744.8007691698164,-99.22778394602557,156.6434938869442,342693.6909187415,157145.96949057453,395855.0501625741,29,2008,1453,2
-779.8854196567424,-111.46369210499914,160.1854366634448,341734.99072882335,160113.83326083788,402554.6045405979,39,2008,1453,2
-815.5308859870453,-123.83318615925101,163.8221925331521,340769.7258139775,162970.1362851217,408748.17617042334,41,2008,1455,2
-851.4792474038773,-136.2546202911124,167.64818441516593,339788.37610042584,165704.48069233372,414429.4254191815,32,2006,1454,2
-887.4865606843484,-148.67533575969748,171.74734395236473,338773.9539663807,168307.82710255706,419593.8143247291,22,2006,1453,2
-923.3251330193781,-161.0803985552613,176.1842907347978,337703.20913988823,170772.21917903857,424238.4099660007,27,2008,1453,2
-958.7848166342256,-173.49862891594935,180.99739624984144,336548.8651247466,173090.43352280994,428361.81856015045,22,2007,1453,2
-993.6729721609443,-186.00291309896255,186.19690565759973,335282.209928493,175255.60979957774,431964.0899518776,22,2006,1454,2
-1027.8151003377816,-198.7042824789716,191.76781485119048,333875.66411311564,177260.8385348963,435046.32006257,23,2006,1452,2
-1061.055500474357,-211.74062856304863,197.67588042601227,332305.5461613037,179098.73411631232,437610.0349487555,34,2006,1455,2
-1093.2555297111305,-225.26331125672303,203.87406087692068,330554.55554385483,180761.04868017073,439656.5226660869,25,2008,1454,2
-1124.2901793668982,-239.4237474857347,210.30801676794474,328613.2553226366,182238.42925985917,441186.18628736696,19,2006,1451,2
-1154.0450065453942,-254.35909239634387,216.9216700279863,326480.6391510209,183520.41323129632,442197.9797043255,3,2006,1451,2
-1182.4133008450415,-270.1790438914094,223.66200339879842,324164.07114919875,184595.6052353804,442688.99339189625,24,2006,1453,3
-1209.2933369527705,-286.9568885719655,230.4817727947952,321678.44846913056,185452.02135981937,442654.2534446161,0,2006,1452,3
-1234.5869411377469,-304.72424443826725,237.34104059502562,319044.49464305927,186077.6657711685,442086.75072861783,8,2006,1451,3
-1258.1995274617245,-323.4682000267857,244.20823596658013,316286.8137164167,186461.17131860208,440977.64660436136,0,2002,1458,3
-1280.042106676549,-343.1309506160929,251.0610184080835,313432.00804113783,186592.3714512816,439316.61964314035,10,2005,1454,3
-1300.036144646266,-363.6114657478218,257.8875134532666,310506.47935894364,186462.8953175437,437092.36082953867,5,2005,1453,3
-1318.118638133102,-384.7669511855192,264.6872692058258,307534.32124816615,186066.68575974047,434293.16297981417,0,2006,1452,3
-1334.2452153074614,-406.41329677763514,271.47057063360194,304535.7890089893,185400.23433074806,430907.5420610094,0,2008,1451,3
-1348.392773531889,-428.3262275731348,278.2557369456025,301526.02077332523,184462.55568953356,426924.9038429438,19,2005,1456,3
-1360.5617707399156,-450.2435589618234,285.0650561200369,298514.11340607575,183255.0427377027,422336.2596772233,1,2008,1451,3
-1370.7769300863586,-471.86936671793535,291.9196208424819,295502.9169354058,181781.25217659265,417134.9244768159,0,2009,1451,3
-1379.0868396412818,-492.88189479431776,298.8329946962885,292489.35466805386,180046.6375461793,411317.158691745,7,2009,1450,3
-1385.5626292981972,-512.9427733535625,305.80469543186473,289465.0514157773,178058.37354273387,404882.8521938784,3,2010,1453,3
-1390.2942152438936,-531.7052587890678,312.8137742425087,286417.3680856283,175825.29690598536,397836.27071900194,1,2011,1453,3
-1393.3832939132703,-548.8227588087548,319.8118894055303,283330.9122447843,173357.78992921556,390186.7551537729,1,2009,1451,3
-1394.935275837747,-563.9558149319269,326.71715131899913,280189.26860135625,170667.60286448995,381949.4178881369,0,2011,1453,3
-1395.053271115442,-576.7757684320876,333.4106777310925,276976.7376989321,167767.6551616575,373145.71725920774,0,2009,1451,3
-1393.8354700815466,-586.9680871064652,339.73654644069757,273680.10181800526,164671.78632430872,363803.64159738104,0,2009,1451,3
-1391.3762454453774,-594.2367750396611,345.50549223586904,270290.15509001707,161394.6734360996,353957.7407309073,0,2008,1455,3
-1387.7706066719368,-598.3082320637728,350.50414820693146,266802.6052824326,157952.1066394099,343649.01883076516,0,2006,1453,3
-1383.1199108721858,-598.9330328048993,354.5099379216575,263218.36531549355,154361.48605469993,332924.29486033204,4,2007,1456,3
-1377.5353017453326,-595.8853356581924,357.3047145188655,259543.51816710917,150642.39142525246,321835.5460179676,0,2008,1452,3
-1371.1357084594506,-588.9633488015829,358.6818915316945,255788.97675536817,146817.1675379226,310439.7513826403,4,2008,1452,3
-1364.0401934546132,-577.9953060219557,358.45207812239914,251969.76537414474,142911.48908708437,298798.86832735216,5,2008,1453,3
-1356.3586942779596,-562.8522399637674,356.45193457205625,248104.31916441667,138954.93081894793,286979.98031658016,13,2008,1456,3
-1348.1870253875725,-543.4698506917432,352.5542929239375,244214.05854143787,134981.36637190214,275055.53740338876,12,2006,1453,3
-1339.6105749104242,-519.8788656431386,346.6766716217018,240323.0201016052,131028.85583512844,263103.11158315145,13,2006,1453,3
-1330.7138908596307,-492.229068271181,338.7875277131266,236457.67111185504,127138.93020037624,251204.87853464886,19,2005,1453,3
-1321.5853071019444,-460.7907741043012,328.91081249985007,232647.13902130118,123354.8194738925,239446.55030307118,16,2008,1458,3
-1312.3120655347404,-425.94021486024144,317.1260255513374,228923.61788294528,119718.1970788003,227914.86547414667,0,2005,1453,3
-1302.9718199096321,-388.1501673165123,303.56220901059635,225322.57737035814,116265.70425477806,216694.59783505552,0,2006,1453,3
-1293.622699056327,-347.9944357639411,288.391997227362,221882.10517045317,113026.77247751532,205865.95109296773,36,2007,1452,3
-1284.2900129293407,-306.1580538658606,271.82997867784127,218640.85725402864,110022.75597551726,195501.6247711609,180,2008,1453,3
-1274.9539815117087,-263.4457188621637,254.13269605414968,215635.33014715335,107267.10010421285,185664.1214943587,543,2005,1452,3
-1265.5461534387327,-220.78590075315935,235.5922329042616,212897.01858898124,104766.42380553987,176404.04202792712,1076,2006,1453,3
-1255.9575712853737,-179.22610275919908,216.51515286767935,210449.1708516165,102521.98134333719,167758.62602970673,1758,2006,1453,3
-1246.054413342556,-139.9056873046646,197.19046627837508,208304.02163507498,100530.8392388322,159750.61988381814,2395,2005,1456,3
-1235.694145331984,-103.96330015114773,177.8514482950026,206462.2294315599,98786.42996671876,152388.12394640947,2660,2005,1455,3
-1224.7397724903842,-72.35282089713458,158.6300324903453,204915.0644805302,97278.58184669053,145665.34031524794,2897,2007,1455,3
-1213.0744701076203,-45.64530264047609,139.5221424682144,203649.00651143724,95993.66093526098,139564.45665289325,2950,2007,1456,3
-1200.6242912659454,-23.941514875988368,120.40824919683659,202653.24301399305,94916.02138320671,134059.7766900183,2981,2006,1452,3
-1187.3925621905516,-6.945447108208329,101.1543210092793,201929.4263163186,94031.20349249839,129124.4512635479,3012,2010,1455,3
-1173.4920009396897,5.853975789707971,81.74600392629635,201498.37805299117,93329.06759424119,124737.08200014492,3012,2012,1454,3
-1159.154768730699,14.986366457311442,62.36708748375469,201397.41541685522,92803.92915686443,120883.8235287659,3019,2011,1455,3
-1144.7059301462373,20.87367182182032,43.37269064567833,201668.65930506177,92450.58420145973,117554.22540881025,2997,2010,1454,3
-1130.5012124513735,23.835186755511508,25.183357189579294,202346.25047238852,92258.64555337392,114733.75669257401,2912,2010,1452,3
-1116.8608630295487,24.18185812809469,8.182047107769513,203449.5794378294,92209.1865399652,112398.58919453868,2881,2008,1451,3
-1104.0317458673412,22.287868856912404,-7.330510772996752,204982.53411928422,92275.69498125877,110515.99848531125,2840,2012,1453,3
-1092.1758588039795,18.59761888865992,-21.134257620165293,206935.03327298685,92428.1840995599,109049.04150297688,2876,2011,1452,3
-1081.3719931637017,13.593525179316591,-33.07331883100301,209284.0596429946,92637.51370893419,107961.5837427502,2900,2016,1454,0
-1071.627488732524,7.749944795813191,-43.04479058762899,211993.61905137647,92878.06820438139,107221.0667286475,2933,2017,1451,0
-1062.8980310613815,1.4863628626961751,-50.998817480420634,215014.72163621846,93129.12036997995,106799.16517053303,2995,2010,1452,0
-1055.108258216661,-4.866234649618851,-56.94357067707754,218286.45747383285,93375.41299299324,106671.38958476525,3019,2014,1451,0
-1048.1685790036606,-11.074644145202935,-60.948376154968216,221739.04682207358,93606.92963470542,106816.17654579543,3031,2034,1455,0
-1041.9878555448183,-16.992764271085928,-63.14212601162931,225299.12838360804,93818.04128451817,107213.72892272187,3089,2036,1454,0
-1036.4798662256312,-22.54349395730316,-63.70682430024561,228895.3357860959,94006.47226184326,107845.04917353159,3111,2040,1455,0
-1031.5638088105386,-27.702211408116618,-62.86701694108487,232462.4699959055,94172.22936498793,108691.54723057261,3138,2036,1453,0
-1027.164069835179,-32.48542675982168,-60.875991585399,235944.68898614185,94316.38078189307,109735.0961063394,3164,2043,1454,0
-1023.212570903493,-36.94465505651882,-58.00191378425483,239297.57715272644,94439.99013775362,110958.14019802607,3181,2044,1453,0
-1019.6516729525133,-41.15960282793482,-54.51341829711962,242488.50317012204,94543.67364132087,112343.6242629483,3196,2038,1455,0
-1016.4337302529951,-45.22403121025106,-50.66016841920077,245495.78580799978,94627.73540885704,113874.855565138,3166,2047,1453,0
-1013.5173868641255,-49.22761350923425,-46.652892965983,248307.34695484556,94692.4708574447,115535.54066115068,3137,2047,1454,0
-1010.8651109177157,-53.24027533313402,-42.65279640075792,250919.1642253432,94738.32086937613,117309.94556197991,3085,2038,1455,0
-1008.4444525200769,-57.30064641269602,-38.772399920644744,253333.52892991647,94765.9185503413,119182.9547568268,3008,2033,1455,0
-1006.2308108706192,-61.41045782593834,-35.082705063369495,255557.03432054288,94776.25384516719,121139.97223276038,2932,2032,1454,0
-1004.2081963699375,-65.53756781720607,-31.62071096793707,257598.69821677692,94770.94394309759,123166.7113412881,2875,2053,1455,0
-1002.3665872300422,-69.62588854330791,-28.39681410470431,259468.57866701414,94752.34662471464,125248.96831080079,2797,2041,1457,0
-1000.6976514292746,-73.60590072376259,-25.40525456685184,261176.7555155953,94723.36812751305,127372.47807523265,2696,2047,1456,0
-999.191688129192,-77.40163038176978,-22.635677794485087,262732.6291753807,94687.10489027013,129522.80833982436,2627,2053,1455,0
-997.8369419805963,-80.9359760531498,-20.08184906166163,264144.6209507532,94646.52870703756,131685.28626247394,2586,2044,1457,0
-996.6207971368889,-84.13681189504231,-17.747522010958825,265420.1649469672,94604.29854656219,133845.0524865311,2496,2047,1454,0
-995.5319028606933,-86.94340060994624,-15.649555654211074,266565.7707453048,94562.69516760281,135987.1861820032,2343,2044,1456,0
-994.5621220456406,-89.31270255126333,-13.816632053520577,267587.0964475721,94523.6043771583,138096.88080993306,2185,2053,1454,0
-993.7072204979561,-91.22527204728146,-12.284106704007353,268489.10892363515,94488.45097133383,140159.7644197174,2149,2064,1453,0
-992.9660710614783,-92.68835318965428,-11.088413196088938,269276.318305532,94458.0865096402,142162.2251882333,1992,2060,1454,0
-992.3391098843408,-93.73363531737613,-10.262822480099468,269953.12897410884,94432.69530400154,144091.63024673692,1959,2073,1453,0
-991.8265673419999,-94.4102157676487,-9.83337129376206,270524.3812582312,94411.74327034474,145936.55525694412,1793,2077,1453,0
-991.4269154962736,-94.77624457897038,-9.814832575558784,270995.8394491429,94393.98061319756,147686.97094966366,1761,2073,1455,0
-991.1363220628906,-94.89159770405196,-10.20748579934426,271374.3056982965,94377.54765603828,149334.29721563242,1666,2069,1455,0
-990.9492451471314,-94.8116741606816,-10.993948105724963,271667.3746969393,94360.20937591938,150871.4240967944,1641,2070,1460,0
-990.8595001356138,-94.58336256275791,-12.136361032138852,271883.026844035,94339.62296111675,152292.70852860718,1538,2067,1454,0
-990.8611839974263,-94.244517722737,-13.57654740589342,272029.1321105765,94313.50882362816,153593.91395109144,1451,2068,1459,0
-990.9491770853192,-93.82658926615142,-15.240391519141246,272112.87724176265,94279.69698135754,154772.1624267363,1312,2065,1456,0
-991.1191700980988,-93.35889448141123,-17.044312596924538,272140.30142663856,94236.09309681645,155825.89756731305,1214,2065,1461,0
-991.3673243970164,-92.87317608518816,-18.9021197680916,272116.1420856822,94180.628096979,156754.82279763278,1162,2088,1458,0
-991.6896469598695,-92.40762150521071,-20.732453131123833,272043.9648798753,94111.25108084387,157559.85045150178,1136,2094,1457,0
-992.0811477989004,-92.00933239709285,-22.46503467061224,271926.4508302189,94025.98613344008,158243.05567759337,1058,2080,1469,0
-992.5351556347383,-91.7348477169459,-24.043362827972594,271765.84583105746,93923.04227425164,158807.60051901758,981,2069,1477,0
-993.0434891124106,-91.64932602426147,-25.424722283710715,271564.59516190796,93800.94741895731,159257.6462583637,929,2075,1471,0
