AccX (g),AccY (g),AccZ (g),GyroX (deg/s),GyroY (deg/s),GyroZ (deg/s),Heel ADC0,MidFoot ADC1,Toe ADC2,LABEL
-976.635928453631,-128.80076854918178,60.46400959878958,261460.141212628,131980.92680440363,198667.85090476272,0,2016,1606,4
-979.2643163377217,-128.16200040498322,62.8619423154029,261437.55280570986,131595.3368959452,198455.4450104566,4,2044,1606,4
-981.9913495940954,-127.64151518662129,65.48720915208922,261418.60009963115,131195.11296695986,198215.1529217241,0,2017,1619,4
-984.8320350962703,-127.2551246381751,68.33362534602362,261401.83045390117,130780.02167853962,197943.84689959834,0,2004,1651,4
-987.8018245696207,-127.01665465956413,71.40038030440819,261386.00364474245,130349.65202958262,197638.24041288032,0,1999,1680,4
-990.9153350978951,-126.9369422119553,74.69275334515471,261370.10707631824,129903.40642404389,197294.921261048,0,2022,1669,4
-994.1853499750915,-127.02276069682738,78.22282175134208,261353.30211513018,129440.56202122815,196910.3663003958,0,2037,1676,4
-997.6233017431719,-127.27614016091339,82.00999928420667,261334.80551869687,128960.39263744457,196480.9511671777,0,1989,1699,4
-1001.2413684995474,-127.6940140120644,86.08063942925882,261313.6813038637,128462.26465749777,196002.9665282065,0,1969,1732,4
-1005.0546680267755,-128.26799103830163,90.46602989050199,261288.60651357396,127945.63964226958,195472.64887607464,1,1957,1754,4
-1009.0826499463245,-128.9843471230091,95.19858547932084,261257.73320060084,127409.94630993546,194886.19756944833,0,1934,1748,4
-1013.350164454879,-129.82439910312556,100.3067552119256,261218.68205488854,126854.33538046668,194239.72972411595,0,1846,1833,4
-1017.8885112724481,-130.76511640876882,105.8100428927664,261168.62306263213,126277.45963281817,193529.19232862373,0,1876,1847,4
-1022.7366240156616,-131.77965312350494,111.71484515475433,261104.39780615366,125677.40425777585,192750.26009733742,0,1844,1915,4
-1027.9417539580886,-132.8380463142689,118.01048740475876,261022.6783883473,125051.70055767267,191898.22062277372,0,1780,1971,4
-1033.5578642429725,-133.9082201803155,124.66620642219966,260920.24443405302,124397.32286241194,190967.89083317883,3,1729,2016,4
-1039.642193157614,-134.95574939529376,131.63189357069436,260794.4397507242,123710.7439059006,189953.57301626456,0,1675,2079,4
-1046.2530276018724,-135.94197352950948,138.84322095217962,260643.64319202557,122988.17209412646,188849.01944784718,0,1587,2118,4
-1053.4502544400455,-136.8231609920387,146.22859031024237,260467.49747288736,122225.91239680728,187647.4192998825,0,1506,2207,4
-1061.2973384538848,-137.55130652067086,153.71550798850595,260266.8505943953,121420.65435964488,186341.4300250919,0,1475,2239,4
-1069.8624647770005,-138.07438935815154,161.2344862018376,260043.57421111458,120569.56005459228,184923.27433974945,8,1342,2330,4
-1079.2182965989648,-138.33604882018122,168.72013765861442,259800.400725077,119670.15831728347,183384.87741820238,0,1287,2364,4
-1089.4411769650324,-138.2757861980286,176.11124543545571,259540.76158712406,118720.12977616969,181717.9826949286,0,1241,2423,4
-1100.6096654809692,-137.8296381095745,183.3503709854544,259268.58689213096,117717.12539970671,179914.27306590907,5,1200,2481,4
-1112.80152354731,-136.9314412844409,190.3821164798134,258988.08433706226,116658.68348452821,177965.53556484377,16,1036,2562,4
-1126.0893056545724,-135.51514413220607,197.15021462080705,258703.53258851104,115542.19077532314,175863.8452530111,2,1028,2594,4
-1140.5362675275935,-133.5175498112102,203.5949173285469,258419.17296286434,114364.90184945322,173601.7787105275,0,928,2658,4
-1156.194343150673,-130.880366724787,209.65218163302572,258139.2399347749,113124.04733850117,171172.64500125794,0,895,2699,4
-1173.1039095932742,-127.55120491525071,215.25496017897117,257868.05271861452,111816.96948593043,168570.685795337,0,851,2733,4
-1191.293414141615,-123.48361105917029,220.33531134707997,257610.06443195886,110441.24555109633,165791.2896369829,0,790,2771,4
-1210.7783597942366,-118.63615328201395,224.82612487525267,257369.76437265595,108994.7764287323,162831.23258589656,0,746,2802,4
-1231.5607676769782,-112.97091391233798,228.66241041107125,257151.3874711011,107475.80982753975,159688.88316644094,4,721,2861,4
-1253.6286579432121,-106.45240326526044,231.78216323240838,256958.53798325226,105882.9612150733,156364.4219336276,0,598,2884,4
-1276.9539690708812,-99.04749173827553,234.1269950002344,256793.7888892254,104215.28911563406,152860.07855223122,7,582,2920,4
-1301.4888915704782,-90.72620717991498,235.64290421669077,256658.20569081898,102472.38850211723,149180.2902838848,13,528,2948,4
-1327.161639948413,-81.46357857812997,236.2811452630572,256550.88569092416,100654.51865881919,145331.85987781524,4,478,2979,4
-1353.8723162136514,-71.24263938997458,235.9994886265903,256468.6338656198,98762.81107859207,141324.21779205158,3,464,2985,4
-1381.4890146207813,-60.057725359819614,234.76411020798741,256405.7357295602,96799.532710533,137169.73150143816,0,396,3015,4
-1409.8445241492095,-47.91693217959415,232.55178386805207,256353.76962807242,94768.33910448532,132883.90849498095,6,323,3008,4
-1438.7338982984961,-34.843426031317826,229.35223696259303,256301.4498603736,92674.45859745119,128485.38767740932,7,315,3046,4
-1467.9122455198794,-20.876381605667643,225.17016486774216,256234.51835882178,90524.81030022146,123995.89109503615,13,281,3057,4
-1497.0929049062331,-6.072439488592096,220.02559451683578,256135.68784851045,88328.00417415536,119440.22546937222,20,246,3051,4
-1525.946662223357,9.492231919579915,213.95195330982438,255984.5931734534,86094.14227531356,114846.16440812843,17,195,3066,4
-1554.1006487062477,25.71959021546899,206.99258900571704,255757.74086911828,83834.5722938388,110244.3287683521,17,206,3076,4
-1581.1364309852922,42.48750672229114,199.19565348639523,255428.51779009265,81561.73579470666,105668.1628270216,17,161,3070,4
-1606.589206286143,59.64788341122244,190.60692664587472,254967.32313031933,79289.06096587794,101153.80384531594,5,157,3062,4
-1629.9490761843495,77.02458988059215,181.26332866031888,254341.85086173416,77030.99327484879,96739.94489556282,16,162,3046,4
-1650.6671624273215,94.41110507496377,171.19104741811515,253517.63687073486,74803.3319368608,92467.80970901278,27,203,3035,4
-1668.1700603956829,111.5685710925988,160.40965230272843,252458.98728304834,72623.83089711638,88381.06236393246,20,293,2977,4
-1681.8797072889197,128.2249327331367,148.93965806306375,251130.1141953741,70512.83270392532,84525.76742936355,18,461,2914,4
-1691.2378218381223,144.0769142381334,136.80848672633442,249496.4673678078,68493.54622026536,80950.60699388373,11,552,2831,4
-1695.7369511440033,158.7960158265917,124.05285457547538,247526.57393630026,66591.71638784981,77707.24393574095,31,708,2673,4
-1694.9492579642617,172.03760367805427,110.71875615136987,245194.31041388193,64834.93931022157,74850.67641088762,22,882,2513,4
-1688.5453626060523,183.45823657172588,96.85931855207676,242481.7594681587,63251.915899599815,72439.20628317239,8,984,2383,4
-1676.3075460730283,192.7473656301382,82.53245757737594,239383.10355522495,61871.64970259159,70533.5894360831,27,1129,2249,4
-1658.138534920315,199.6651771596703,67.80234080467653,235908.65191600952,60722.727413342436,69195.53735615927,0,1276,2106,4
-1634.0599025768302,204.0778857058353,52.74423002528142,232087.5590184391,59832.68793377201,68485.54562160786,20,1383,2022,4
-1604.198515043444,205.98985554199868,37.44733382482109,227969.0358342903,59227.24198885001,68459.78611341365,17,1530,1915,4
-1568.7678855248544,205.56133040665566,22.014636440345424,223622.54849186193,58929.42382099333,69167.09523572386,8,1653,1782,4
-1528.0495401851106,203.0927719598709,6.565908936944832,219136.96801174508,58958.52544546309,70647.49168441752,0,1724,1724,4
-1482.3762656840627,198.97518526747993,-8.753616237099543,214618.2130676182,59328.297248999676,72932.29311686498,0,1773,1674,4
-1432.124583209049,193.63210282395173,-23.765681141180366,210185.49628386018,60044.70293074629,76044.93243573433,0,1814,1624,4
-1377.7202474791015,187.47207933364646,-38.262514035670314,205965.39439325384,61103.96942839747,80001.60448944617,0,1827,1610,4
-1319.6497682058634,180.8468590975884,-52.025122826886296,202082.83461751544,62491.23225825122,84811.38172861058,0,1896,1549,4
-1258.4694543052174,174.01731511768205,-64.84831344241607,198651.77047872797,64180.133567777375,90475.83892647049,4,1916,1531,4
-1194.803977125874,167.14015430859482,-76.56471268321881,195768.329766535,66134.13753507334,96988.56814019177,7,1953,1498,4
-1129.3306789330545,160.27728892050098,-87.0670336889104,193505.87403178756,68309.7644641501,104335.01869078928,0,2013,1453,4
-1062.7588924668858,153.41923151575537,-96.3226868722085,191912.14896382522,70660.53117051761,112492.53234166071,0,2010,1457,4
-995.8110499816686,146.51719632896635,-104.37197561545685,191009.72593749245,73140.80792402556,121430.54702853742,0,2011,1454,4
-929.2010809521781,139.5226338032985,-111.3107674703398,190799.12142092068,75709.88147621216,131111.2935292043,0,2011,1453,4
-863.6137881957205,132.4245789907091,-117.26800930519903,191262.71482830946,78335.26193492094,141490.6623891399,0,2011,1454,4
-799.6901255143562,125.27405675984906,-122.38378468572917,192368.73518385724,80993.86799937148,152519.24043868965,0,2009,1453,4
-738.0124484013306,118.19376302465488,-126.78339005839575,194075.7161035924,83671.36702329053,164144.10933975558,0,2011,1453,4
-679.0928418468105,111.37096175783087,-130.55145888424727,196336.43349854628,86360.61112718542,176310.70596471374,0,2010,1455,4
-623.3751652090683,105.02757472135912,-133.72173273149383,199099.9449563627,89059.58895825865,188964.02997315588,0,2011,1453,4
-571.2484819389771,99.3714833827,-136.2871612652812,202312.066346318,91769.03916437409,202049.60400123743,8,2010,1455,4
-523.0610677396826,94.55200022007979,-138.21913097382674,205915.2144143563,94490.35362801503,215513.83686986216,0,2009,1450,4
-479.12768313799074,90.63835925470687,-139.4856610584042,209848.46781246876,97224.56284542367,229303.52706734938,4,2010,1455,4
-439.72979411569946,87.61928173541423,-140.06677675812304,214048.42114678147,99972.42482852144,243365.28389087922,0,2009,1452,4
-405.1136936245637,85.41506104242266,-139.96489655729843,218450.4612661916,102735.0226987656,257644.98946224418,0,2008,1451,4
-375.48853894087813,83.89785719467166,-139.20631393844124,222990.2410077069,105514.53829770669,272087.38244496676,0,2008,1452,4
-351.0231411616406,82.91684223981824,-137.83457624708797,227605.61849448475,108315.17879439033,286636.37320740096,0,2007,1453,4
-331.84401937509836,82.31957296785721,-135.90037439252887,232238.4605455627,111143.8483315822,301235.6074774444,0,2009,1452,4
-318.0371468334295,81.96307453639616,-133.45063939073975,236835.6483631489,114010.05228615535,315828.8697175188,0,2008,1453,4
-309.65134034564096,81.71806686873819,-130.51782672567316,241349.53564185643,116925.04507175546,330360.88409134187,0,2009,1452,4
-306.70074389708435,81.47060779731804,-127.11316825325075,245737.93767358776,119900.55807910762,344778.05497374746,0,2009,1452,4
-309.16560591756195,81.12069852229244,-123.2276472733449,249963.56680538022,122947.39388390776,359028.74434441276,0,2009,1456,4
-316.9917219318715,80.57724673386028,-118.83934213384711,253993.25086887172,126074.07834318806,373063.8043696622,0,2008,1455,4
-330.0894840000054,79.75167182495147,-113.92223972970272,257797.24623771035,129285.83783169645,386837.1036892924,0,2008,1453,4
-348.33351255084256,78.55289002960545,-108.45284111838885,261348.83307348576,132584.1864183646,400305.615051589,0,2007,1455,4
-371.56355921173986,76.88426126798963,-102.41372071124208,264624.32523015403,135967.1265797943,413429.58022484597,0,2008,1456,4
-399.586145123336,74.64226317475242,-95.79378933261242,267603.2831281425,139429.5927162441,426172.48332814744,0,2008,1454,4
-432.1768082404145,71.71667217995972,-88.58553259884769,270268.6246907973,142963.8703304177,438500.48427311453,0,2008,1452,4
-469.0835497036332,67.99201943725012,-80.78195831418226,272606.53260101884,146559.98231044933,450381.8943837624,0,2008,1452,4
-510.0293582364023,63.3500906926947,-72.37686941329761,274606.06316309224,150205.8325949262,461786.7427456363,0,2008,1453,4
-554.7126212476618,57.67293228977328,-63.369494747488986,276258.4281100873,153887.04982133824,472686.3450411364,0,2006,1454,4
-602.8078381111409,50.845839427116005,-53.771443663748116,277556.13450224826,157586.88169114728,483053.26299780677,0,2008,1454,4
-653.9667536990872,42.75970902006327,-43.612610176726584,278492.2415010779,161286.2799735447,492861.32719868823,0,2007,1455,4
-707.8198345094813,33.31201840280581,-32.94388163335132,279059.82732693374,164964.27183229572,502085.3999337804,0,2008,1455,4
-763.9800762199314,22.406305874755386,-21.837475194468908,279251.5842727993,168598.78596660338,510701.2920653936,0,2008,1452,4
-822.047347180298,9.950643665327997,-10.386939467027322,279059.5594454189,172167.570124747,518685.75801255694,0,2008,1453,4
-881.6127612296324,-4.144875857401391,1.293743064841478,278475.21622023766,175648.9129623465,526016.3734932988,3,2007,1454,4
-942.2657622287555,-19.970978179833228,13.074650228141124,277489.87808253354,179022.39187686605,532671.5566357338,5,2006,1452,4
-1003.6000310797758,-37.6203010062553,24.817512794326287,276095.31601092184,182269.5084517106,538630.4873031161,7,2008,1455,4
-1065.2136035690166,-57.18730109954494,36.38437091663326,274284.2373342589,185374.02021329827,543872.6305382423,0,2008,1452,4
-1126.7050799627693,-78.76983205354999,47.64724273704322,272050.78038651554,188322.22404294583,548377.2544756288,0,2006,1455,4
-1187.667779996287,-102.47134176725874,58.49702638148444,269391.2465041132,191103.1300178775,552123.2257362976,0,2006,1454,4
-1247.6857854272366,-128.39931752604917,68.84966708336175,266305.186062608,193708.13965429727,555089.0879458982,0,2006,1457,4
-1306.337888298038,-156.65828327539262,78.64975940554376,262796.73172797414,196130.20491593427,557253.372136043,0,2006,1455,4
-1363.2062938265742,-187.33916088482238,87.8710265219395,258875.74216620246,198362.82136547432,558594.772252307,0,2002,1457,4
-1417.8831790015045,-220.50731694466768,96.51352772648467,254558.28660496417,200399.21393045367,559091.9694167379,0,2008,1454,3
-1469.9744325898132,-256.19183389049005,104.5986175381257,249866.45705253448,202231.8245324862,558723.4255901271,0,2005,1454,3
-1519.101024970293,-294.37879056581204,112.16236646024782,244828.0141018287,203852.004876068,557467.4885980288,0,2004,1459,3
-1564.9006758289602,-335.0088278484131,119.24816244373362,239476.16318959725,205249.88299534022,555302.9091503824,0,2004,1459,3
-1607.0336625796983,-377.97532105261513,125.9006548757562,233849.31060393245,206414.50221632727,552209.6760399581,0,1998,1462,3
-1645.1886294623405,-423.1184998214182,132.16354927718925,227990.83100386147,207334.2330144505,548169.9198088924,0,1992,1466,3
-1679.0851360057375,-470.2152042924855,138.08031965161345,221948.6461270425,207997.46636217672,543168.8154824519,0,1993,1466,3
-1708.4782591286262,-518.9687039190467,143.69452236451463,215774.19546471257,208393.60174702236,537195.6609856067,0,1989,1469,3
-1733.1672764004659,-569.0024967900735,149.04822959493455,209521.2479499878,208513.99983202238,530245.157770477,0,1981,1476,3
-1753.0058045178384,-619.8601483929297,154.17996548543664,203244.9638378276,208352.67352511256,522318.6627221486,0,1994,1471,3
-1767.9121631036223,-671.0105275631114,159.12439866728064,197000.9045993706,207906.8944747781,513425.2401150425,0,1981,1478,3
-1777.8773299849047,-721.853730757416,163.9135553564356,190844.23376286068,207177.69674418346,503582.60854808264,0,1982,1477,3
-1782.9700226476396,-771.7280889183844,168.57748380765165,184829.38367009716,206170.012481481,492817.90446745435,0,1980,1477,3
-1783.3418390931313,-819.923217522875,173.1446844926528,179009.79663507166,204892.3976485769,481168.0077211517,0,1965,1489,3
-1779.2321349168076,-865.6943503634003,177.6432901864031,173437.6353757279,203356.5686905239,468679.6669214597,0,1963,1492,3
-1770.9694441926783,-908.2716817465318,182.10130292011954,168163.24485578923,201576.8343630375,455409.313873865,0,1963,1496,3
-1758.9664207428796,-946.8676602109084,186.54470366000876,163233.9210046259,199569.390013861,441422.0147559407,0,1961,1494,3
-1743.7074401071366,-980.6852493870979,190.99432587082327,158692.50494678825,197351.74962556016,426790.21960354643,0,1964,1496,3
-1725.7271954391588,-1008.932022777877,195.46312099466334,154576.3182693753,194942.54511185424,411592.89695290953,0,1965,1494,3
-1705.579811023289,-1030.8444519237967,199.95675689954658,150916.1052860726,192361.53852946486,395914.6305801958,0,1975,1480,3
-1683.8077869063163,-1045.713518605886,204.47733226135767,147734.94276915575,189629.79750872884,379845.19617228984,0,1978,1484,3
-1660.917286032401,-1052.9079830974235,209.0232170536694,145047.08821682454,186770.1999253099,363479.98991121363,0,1977,1482,3
-1637.3574949567687,-1051.9068906677746,213.58048039032582,142856.5556705255,183808.28105153056,346920.5057983181,0,1970,1486,3
-1613.5098156029958,-1042.3431482648161,218.11347085910674,141156.16327712886,180773.18279246424,330274.9366051564,0,1957,1495,3
-1589.6948522107784,-1024.0531643163445,222.5666287582789,139928.11899997256,177698.22574976314,313658.890917803,0,1956,1503,3
-1566.1903504021602,-997.1286221373699,226.876480075194,139146.02740911112,174620.6524249855,297195.065831931,0,1958,1494,3
-1543.24509084067,-961.9530262295773,230.98016769304334,138777.34370729548,171580.41423402066,281011.5338518653,0,1969,1492,3
-1521.0791714612242,-919.2039476752185,234.81203152022383,138786.18809009655,168617.6247926791,265237.83632681856,0,1965,1493,3
-1499.8708123755662,-869.821876905315,238.29179902881387,139137.00435658955,165768.69042635043,249998.04976646736,0,1958,1498,3
-1479.7380985475936,-814.9652616579519,241.31322381626427,139798.0483658959,163062.91976693377,235403.90575113863,0,1959,1496,3
-1460.7210994589357,-755.9645861886947,243.73811715808088,140743.06706787224,160521.2547692892,221550.9420691503,0,1976,1484,3
-1442.7628965488605,-694.2746728564254,245.39448398501062,141950.88095493824,158156.69834165074,208516.73429716122,92,1989,1470,3
-1425.6945723082297,-631.4347793193349,246.07823081406664,143403.56789143887,155975.5405176311,196360.51726944538,460,2000,1462,3
-1409.2374551104217,-569.0362643187057,245.56275286650686,145083.81154648444,153979.43716306073,185124.3250864136,1780,2002,1460,3
-1393.0298982945374,-508.6756475991433,243.6172463053832,146971.8601627225,152168.47460592294,174834.67559807407,2912,2013,1451,3
-1376.6706580564746,-451.8761813217006,240.02630862294959,149043.21909525327,150544.1371901591,165504.07118224935,3259,2010,1455,3
-1359.769143402197,-399.941199105029,234.61348505607663,151269.2653216607,149110.95871005303,157132.0761661092,3206,2010,1453,3
-1341.9987363862224,-353.726736217549,227.28357092956264,153622.6066420348,147877.1453670178,149705.75656361182,3110,2013,1455,3
-1323.1471023927036,-313.4605738202605,218.08125330208432,156085.54975260104,146854.58668307096,143200.2995952652,3102,2012,1451,3
-1303.1640637523942,-278.7853812681119,207.2431600534123,158656.9063519533,146056.92051397092,137581.45305149615,2949,2010,1454,3
-1282.2023914660938,-249.02592983389624,195.21679424928834,161352.92802771268,145494.58106763058,132809.94860871497,2820,2011,1452,3
-1260.624050504928,-223.48642921636247,182.62933925726085,164201.30884682102,145168.73127629593,128845.87188183326,2720,2011,1455,3
-1238.9447424584278,-201.61824088660362,170.20166361529897,167230.09822124065,145066.505243819,125651.1199512355,2621,2014,1451,3
-1217.7210382243154,-183.0421817499859,158.6203996700725,170456.0661415,145158.83969751946,123189.44765703025,2529,2009,1451,3
-1197.4287458252763,-167.47139842463645,148.4197778340529,173879.2400430761,145402.3961502038,121424.28676756455,2560,2024,1453,3
-1178.387523016646,-154.61286973245538,139.92632366164284,177485.3978756302,145745.02552736932,120315.7552422282,2547,2027,1451,3
-1160.7461126022058,-144.12173533189244,133.26938833404606,181251.6012419801,146132.56323157824,119818.97444591745,2592,2023,1451,0
-1144.5104756117912,-135.6129761468004,128.42871216110944,185150.44274576002,146515.86302377743,119884.50167573018,2616,2032,1453,0
-1129.588722233555,-128.69580572606648,125.28329753765816,189151.2844314702,146856.30543005466,120460.28988679769,2603,2041,1455,0
-1115.837840543609,-123.01103799503079,123.64229924150878,193219.22355080573,147128.10614351716,121494.45005737914,2553,2041,1453,0
-1103.1108855854293,-118.26757521191415,123.26799521915892,197314.54814808074,147318.04719488736,122938.0979822881,2418,2047,1451,0
-1091.295069012156,-114.26859750423274,123.90133182340858,201394.22168974957,147423.8092451993,124747.02019222095,2287,2042,1454,0
-1080.3271751071486,-110.91193061970641,125.28772211996028,205415.41912861218,147451.00687628952,126881.26988695592,2213,2047,1454,0
-1070.1872226454375,-108.16209040804995,127.19705872979885,209340.42696457726,147408.873340625,129303.2960462289,2087,2047,1452,0
-1060.8816456042346,-106.011552996857,129.43040295017067,213140.71233352902,147305.9952605441,131976.021328436,1963,2058,1451,0
-1052.4252093229175,-104.45011184467538,131.81212692499582,216798.3360206146,147147.63146278146,134861.80337308164,1761,2075,1452,0
-1044.8244204718978,-103.44611519394566,134.17782044093818,220304.86529698895,146934.87441931863,137922.38315941067,1598,2061,1455,0
-1038.0647990111397,-102.93802179572626,136.37176349265047,223658.64449335125,146665.57380382338,141119.47238530437,1408,2058,1453,0
-1032.105707025338,-102.83541241046444,138.2573469498594,226861.62586884096,146336.30567273477,144415.45265050462,1243,2068,1451,0
-1026.884050054665,-103.02823851931414,139.73274904548768,229916.64632177792,145944.2428861025,147774.04880874648,1120,2062,1451,0
-1022.3243557887153,-103.40289417317798,140.7442242971337,232825.1144194991,145488.47301382571,151161.19392007322,1000,2064,1454,0
-1018.3490442008575,-103.85805090504722,141.2909741518276,235585.32878788182,144970.55400980782,154545.79154174172,724,2083,1455,0
-1014.8850218481816,-104.31308931952383,141.41700508502976,238192.0225805057,144394.16841391675,157900.00516945287,716,2096,1455,0
-1011.8677140136515,-104.71012543979774,141.19219750240276,240637.10211014267,143764.24172917483,161199.23440955233,533,2114,1453,0
-1009.2435539687945,-105.01361152879653,140.69272568167517,242910.85395755913,143086.17532160348,164421.9129150348,434,2123,1458,0
-1006.9700861296299,-105.20955870803532,139.9890491235768,245003.20490406523,142365.51924084232,167549.19361957238,264,2106,1462,0
-1005.0131992355323,-105.30492456698104,139.14085784936228,246905.11018374923,141607.93249526207,170564.69368003836,192,2140,1463,0
-1003.3430251028608,-105.32636558196067,138.19640010393036,248609.73518428826,140819.24776958668,173454.2935529341,160,2162,1469,0
-1001.9308267163316,-105.31642520484796,137.19553715669142,250113.1274158007,140005.54285630418,176205.97263689694,132,2181,1654,0
-1000.7476454699266,-105.32692473451166,136.1745599804921,251414.6312870291,139173.09409881194,178809.77590554437,130,2149,1508,0
-999.7643791730699,-105.41257411457008,135.1693583593758,252517.10595780073,138328.19321277083,181257.8206383134,77,2161,1685,0
-998.9527481339143,-105.62654598880934,134.21491281755792,253426.7814389203,137476.86693887226,183544.23948672702,36,2190,1684,0
-998.2862852700463,-106.01675674294256,133.34206562804437,254152.82873088503,136624.53312366307,185665.1210775645,7,2146,1543,0
-997.7407805405771,-106.62266950555383,132.57426800521338,254706.85262715982,135775.75311826816,187618.41146284205,7,2141,1589,0
-997.2944932310207,-107.4736534028567,131.92609113262932,255102.38093740758,134934.20348884625,189403.7290034542,0,2134,1594,0
-996.9287530735595,-108.58879707838396,131.4034024506722,255354.31234357672,134102.79112220887,191022.17561252852,0,2103,1612,0
-996.6289815699071,-109.97760793670498,131.00433388412137,255478.39808540075,133283.80554128633,192476.15687056023,0,2086,1626,0
-996.3855349743068,-111.64182053303257,130.72015708195894,255490.84545407642,132479.0234375812,193769.17588127052,3,2107,1621,0
-996.1936088882703,-113.57843236501706,130.53542338143455,255408.00952060302,131689.70047214298,194905.6353026765,3,2061,1639,0
-996.0520325069745,-115.78269456872265,130.42774519770708,255246.1909863276,130916.51158749989,195890.65902012223,0,2046,1635,0
-995.9615561077545,-118.24983958981022,130.36845381073937,255021.58517660695,130159.55132584885,196729.90837310345,0,2045,1669,0
-995.9236228811924,-120.97541278826742,130.32472731920515,254750.3123837645,129418.4228185456,197429.3998101459,0,2006,1702,0
-995.940749615753,-123.95347265633622,130.26351597147178,254448.38106156944,128692.40533641395,197995.3331270651,0,2021,1699,0
-996.0183820122476,-127.17212530126926,130.15735180794385,254131.47946799264,127980.6627690695,198433.9159254309,0,2045,1720,0
-996.1666843413418,-130.6088180600565,129.98961256814397,253814.6394597723,127282.40040413554,198751.1848295112,0,2000,1743,0
-996.4017132032996,-134.22910360276794,129.75616608438534,253511.83469918804,126596.87900057857,198952.83335642537,0,1931,1821,0
-996.7465487445315,-137.9893480460009,129.46374661832547,253235.53750025152,125923.2919341956,199044.04189838638,0,1907,1845,1
-997.2325136443292,-141.84033784174318,129.12774167589154,252996.374278951,125260.64572587449,199029.3201288501,0,1882,1871,1
-997.8999526895891,-145.72970596998613,128.771088292717,252802.97839571393,124607.75661898775,198912.3649434564,1,1828,1914,1
-998.7975085415627,-149.60385708581873,128.42435593661602,252661.95870234974,123963.32708573151,198695.91867390196,0,1835,1896,1
-999.9797780313571,-153.40945618126793,128.12612753790336,252577.91331048156,123326.01016161029,198381.65022598064,4,1817,1964,1
-1001.504958689311,-157.09309979469512,127.92249396917077,252553.4827063905,122694.38899819485,197970.08128550724,0,1680,2026,1
-1003.4337057049482,-160.59951591178265,127.86501116991073,252589.41616049717,122066.86233949466,197460.5474162133,2,1604,2095,1
-1005.8295752082192,-163.8702587476623,128.00633379401518,252684.6253558168,121441.44705470161,196851.19585643182,6,1605,2145,1
-1008.7609069585014,-166.84361992040618,128.3933809307715,252836.23610035572,120815.50068859155,196139.0295282967,1,1531,2205,1
-1012.302847437404,-169.4555275714863,129.06078115356388,253039.67206045517,120185.49143662959,195319.99761143865,0,1454,2276,1
-1016.5384408872414,-171.6418749509661,130.02722486267675,253288.8530659294,119546.98290204679,194389.1037808805,5,1419,2303,1
-1021.5588524063859,-173.3417028972777,131.29410107589206,253576.5562570114,118894.83440641403,193340.48987123327,2,1367,2337,1
-1027.4628123887455,-174.49906745894452,132.8453705935964,253894.83525517012,118223.49575653682,192167.50282922632,6,1295,2359,1
-1034.355115578267,-175.06298969597327,134.64935801096337,254235.4553242617,117527.2883497336,190862.76166463626,4,1224,2435,1
-1042.344287625175,-174.98683838762796,136.66273356850456,254590.39560372438,116800.628540267,189418.22113193126,6,1123,2500,1
-1051.5399458296995,-174.22804019953486,138.83469647935934,254952.27086796652,116038.1804026004,187825.2885381364,7,1079,2535,1
-1062.0499917585553,-172.74822104115586,141.10953449504575,255314.51517497946,115234.91658032256,186075.05583171843,8,1001,2574,1
-1073.9770101228085,-170.5139082040619,143.42799871321833,255671.41660021315,114386.09376567138,184158.6145834096,3,972,2599,1
-1087.4140386138502,-167.49782820023077,145.72804090894996,256018.11971038365,113487.22707832769,182067.39669496779,5,895,2654,1
-1102.4409455910234,-163.6804458718367,147.9449126141915,256350.6306964721,112534.15219684757,179793.50732470016,0,912,2656,1
-1119.12181108921,-159.05121495432448,150.0115763421845,256665.85759880242,111523.18250218855,177330.02979373332,1,815,2720,1
-1137.502558013179,-153.60902203531194,151.86056732191375,256961.67832243993,110451.3370473099,174671.31679589892,8,788,2736,1
-1157.6086058484502,-147.36118352640395,153.42800265901985,257236.97902345317,109316.59959449184,171813.23941401136,0,777,2754,1
-1179.4431932851003,-140.32086212000723,154.6593637105295,257491.6068351101,108118.12077360875,168753.3552980475,0,711,2784,1
-1202.98619045338,-132.50411969248543,155.51428016215652,257726.1907502124,106856.28317953777,165491.09804007283,0,677,2828,1
-1228.1923961509412,-123.92767514045983,155.96798418166023,257941.80890344872,105532.6113098869,162028.08382130187,7,615,2855,1
-1254.9891103577022,-114.60764508499817,156.01000540983213,258139.55793989467,104149.58694235464,158368.48951444076,0,607,2878,1
-1283.273647962085,-104.56006724035313,155.64079499060603,258320.09742011546,102710.42984800854,154519.37745907635,3,553,2903,1
-1312.9111308342895,-93.80340374978594,154.86676319035487,258483.19905011557,101218.86654609726,150490.87836023208,8,489,2926,1
-1343.731549649578,-82.36174898378576,153.69611399528864,258627.37558570228,99678.99586395752,146296.32448943998,2,435,2945,1
-1375.5249867393786,-70.26753263815357,152.13744370522116,258749.62373144497,98095.30390708268,141952.3338154354,14,390,2974,1
-1408.0353715820752,-57.563431546450055,150.20037899786252,258845.20783005038,96472.7148380276,137478.7044435507,13,367,2989,1
-1440.9541934666263,-44.303978388826096,147.89628460876602,258907.4666946819,94816.62215841094,132898.2896507375,11,374,2993,1
-1473.9166499684404,-30.557808487803324,145.23715086819087,258927.65818069837,93132.86480275959,128236.97111406489,0,355,2999,1
-1506.5017569571019,-16.411282462996482,142.23225715824523,258894.81836103738,91427.60310134954,123523.54832536104,5,298,2999,1
-1538.2344499946416,-1.9734428804725157,138.88475106054128,258795.66041998577,89707.24587031263,118789.65111404861,13,278,3023,1
-1568.5888567312952,12.618142528627658,135.1906450136296,258614.60114321683,87978.60626642825,114069.77102350096,10,201,3026,1
-1596.9943277056423,27.19141136875707,131.1406716970858,258333.9792150298,86249.25336937919,109401.19670919763,8,209,3027,1
-1622.8429452563248,41.535159968540306,126.72449007713362,257934.45152823246,84527.95915540768,104823.93243329012,23,185,3037,1
-1645.500760567003,55.39757769436752,121.93839496327672,257395.60147595254,82825.18090455506,100380.7175185429,23,196,3034,1
-1664.3288452410961,68.48898486432877,116.7969598615222,256696.78018497713,81153.4908961357,96116.99272342987,22,179,3017,1
-1678.7100739168657,80.48818531226591,111.34375305106187,255817.956772402,79527.7828538724,92080.90228923353,19,227,3002,1
-1688.075868076038,91.05485114974816,105.65458957246112,254740.48469814463,77964.95909468729,88323.36358713638,15,289,2976,1
-1691.9339674855923,99.85120678360262,99.83219829408142,253448.00959476957,76483.01745714158,84897.93400892247,12,314,2913,1
-1689.8923144310593,106.5674600636139,93.99693381016999,251927.59536574903,75100.02413038319,81860.50406337733,18,409,2834,1
-1681.6736514103636,110.94590943276505,88.27754176316006,250171.15345040197,73833.3109137158,79268.79233392613,15,573,2704,1
-1667.123244107393,112.8052233049884,82.80270249289792,248177.25961668315,72698.70407979075,77181.33659384906,15,702,2596,1
-1646.2108725841817,112.06067369430522,77.69359408903938,245952.81372169437,71709.79739691576,75656.1007431796,13,855,2467,1
-1619.0250218032083,108.7359429330178,73.05531948620418,243513.81654269944,70877.42434434182,74748.6678143653,13,1006,2324,1
-1585.760095205381,102.97006801939823,68.96529833037226,240885.23353544786,70209.27017053956,74509.7744061129,15,1188,2203,1
-1546.7028321178984,95.02021292231868,65.46194919251137,238100.45658416994,69709.72882876033,74982.97008744106,4,1338,2075,1
-1502.2201111113125,85.25275521764158,62.53771652269166,235200.72580311197,69380.27074603946,76203.33180597497,0,1559,1865,1
-1452.744076365653,74.11829541502048,60.14050462658248,232234.65798620737,69220.29211737598,78197.09217727835,0,1672,1765,1
-1398.7580710976074,62.11830463080493,58.18536758792059,229257.96076983545,69227.99688201667,80981.69669384547,12,1749,1680,1
-1340.7883875835253,49.76643692138833,56.57230156781855,226332.55275278402,69400.84000682006,84566.0701242414,15,1823,1620,1
-1279.397875564452,37.53971742237313,55.20493469146276,223524.0729451865,69735.42653313017,88950.97146521838,0,1869,1581,1
-1215.1804937439601,25.831563529139665,54.003346538248536,220898.32039972304,70227.11015169059,94129.21198138688,12,1923,1527,1
-1148.758197175169,14.923932182161298,52.90411522832869,218517.3126621172,70869.72546551803,100085.7475927261,7,1941,1512,2
-1080.7760709802633,4.979582961397458,51.84999217341821,216434.94370616818,71655.76185699648,106797.87227546347,0,2010,1453,2
-1011.8953635039593,-3.9497526648355583,50.77990231374621,214693.52577167068,72576.9819346102,114235.36294137758,4,2008,1456,2
-942.7844822817781,-11.89930489946591,49.62850708118975,213322.69165802805,73625.53906232573,122360.6738867145,0,2014,1451,2
-874.1043180424724,-18.95393956998224,48.33641420815687,212340.2521275243,74795.54265588518,131129.61972962436,0,2010,1456,2
-806.4928289627111,-25.209778219627992,46.86403229573672,211753.84366264404,76084.29448362337,140492.2350207903,0,2010,1455,2
-740.5525740548762,-30.74441595897646,45.20300350737139,211562.9127564963,77492.27334498813,150393.75011118705,0,2013,1450,2
-676.8353975108996,-35.59594726397504,43.38595795005825,211761.0419298698,79021.84736687345,160776.25732311365,0,2010,1450,2
-615.828393763055,-39.755537866829776,41.493158038705225,212338.00306431978,80675.50368819889,171580.5007631742,0,2012,1452,2
-557.9513046832091,-43.18096537278534,39.64749738008623,213280.7084385824,82454.22708615205,182747.2275366529,0,2010,1454,2
-503.5634509553225,-45.82486374989575,37.9950261696322,214573.05383278424,84356.13708202384,194218.53696979766,6,2006,1455,2
-452.9730250456095,-47.65956458228891,36.6820903906488,216195.27176455315,86375.65639023067,205938.7818962955,0,2004,1455,2
-406.44412948660823,-48.68855558483442,35.84067622864712,218123.54995683147,88503.83251079748,217854.62499440907,9,2009,1452,2
-364.19968641048814,-48.94764017651189,35.5827867158309,220330.24121202252,90729.86611743049,229915.0157443427,0,2009,1451,2
-326.42237036783,-48.50013475315214,36.00082416312819,222784.34621089097,93042.878065851,242071.2189288364,0,2009,1454,2
-293.25537742863713,-47.42853300850533,37.1722407630128,225451.9611322063,95433.08119801666,254276.84026504634,0,2008,1452,2
-264.8028708682199,-45.82554308350732,39.16617460499984,228296.66950879886,97892.35235962043,266488.34410671843,3,2008,1451,2
-241.13050111413236,-43.786863787744444,42.0490818040797,231279.90128375788,100414.22452476359,278665.64181086345,0,2009,1453,2
-222.26575000139476,-41.40597533128186,45.88604264617337,234361.19094897178,102993.2452511356,290772.0946916518,5,2008,1452,2
-208.19811201169932,-38.77096478840543,50.73565233166275,237498.1939716563,105623.99689316635,302774.22618293785,1,2009,1453,2
-198.88020435599483,-35.9643974384329,56.638764059149665,240646.71706485434,108300.19168203516,314641.7910987725,3,2008,1452,2
-194.2299686804134,-33.066041093315576,63.6041923641851,243761.2657112707,111014.0962057912,326348.44833407947,8,2008,1455,2
-194.1337467235408,-30.156631525677714,71.59762140106761,246796.01482329253,113756.38442594335,337872.24196287215,10,2008,1452,2
-198.451184289149,-27.320733724827228,80.53855031264217,249706.0701801127,116516.57389375081,349195.2495133158,5,2008,1452,2
-207.02254962463027,-24.647396192131076,90.30480141986766,252449.2003958123,119284.04335526102,360302.89907308616,9,2008,1451,2
-219.6760589813349,-22.228258794839668,100.74099339819278,254987.54704991003,122049.03459525504,371183.2023055371,7,2009,1455,2
-236.23280628288134,-20.153724513962402,111.66989355075424,257288.77949346928,124803.14659973071,381825.9037687456,11,2008,1453,2
-256.50969462855903,-18.508876064684323,122.90739077623863,259326.89185484863,127539.47797553996,392221.8542413185,7,2007,1454,2
-280.32067538685715,-17.371662065172774,134.27637306994674,261082.6254293958,130252.54684590238,402362.4413967809,10,2008,1452,2
-307.4770568840795,-16.814901047226282,145.61424610458275,262543.27524879767,132937.97286731235,412238.99407430715,5,2008,1452,2
-337.78847544262055,-16.91118944306435,156.7755089229889,263702.0677003641,135592.05705236024,421842.53150593484,9,2009,1452,2
-371.0637122898272,-17.737778975644087,167.6318042484525,264557.4751571946,138211.36578059196,431163.63027280185,0,2008,1451,2
-407.1107142689923,-19.378689741476844,178.0702644287943,265112.620983217,140792.39528556252,440192.1668093997,0,2007,1452,2
-445.73691691217914,-21.92350671716273,187.9917470090242,265374.74974752386,143331.39683021948,448917.2284632698,0,2008,1454,2
-486.74906757260464,-25.464408145339505,197.31002851340486,265354.78120645805,145824.2949169282,457327.0020144759,4,2008,1452,2
-529.9523087474383,-30.093722946538534,205.9519108224833,265066.92239860614,148266.67144456579,465408.45413912355,4,2007,1453,2
-575.150102632532,-35.903162376416304,213.85788375589516,264528.220544248,150653.88721207564,473147.15522993146,7,2008,1456,2
-622.1438337908467,-42.984090414374926,220.98228847827966,263758.0940902106,152981.2112417757,480527.1533165788,6,2004,1456,2
-670.7310476971784,-51.427849318696246,227.29205734100083,262777.87017422466,155243.85208435397,487530.7435135364,4,2003,1456,2
-720.7037066291344,-61.32590654521053,232.76465589426684,261610.2416649036,157437.0085188558,494138.4105436119,5,2002,1455,2
-771.846131609821,-72.76987038533737,237.38650617442025,260278.7362320733,159555.94931680057,500328.81365946075,6,2004,1458,2
-823.9332106792466,-85.85148860349169,241.1526861176664,258807.21726294153,161596.1301454495,506078.63681271754,3,2006,1454,2
-876.7307941179125,-100.66253012738224,244.06808207677923,257219.2572680682,163553.44560270986,511362.53684587724,8,2008,1452,2
-929.9961024933299,-117.29340561154626,246.1493260025238,255537.51039765863,165424.46830172857,516153.1017045822,11,2006,1452,2
-983.4766313164388,-135.82908830258214,247.42687344131838,253783.1774968433,167206.50484851564,520420.7051028046,9,2008,1455,2
-1036.9094251121583,-156.34232966454175,247.94708469022746,251975.38015642937,168897.53997885983,524133.50365757867,11,2006,1452,2
-1090.0197040771989,-178.8860532982853,247.77347234516103,250130.51586080884,170496.11230383845,527257.5563324685,4,2006,1453,2
-1142.5182036529036,-203.48708114213764,246.98575305275023,248261.64897688694,172001.14482728243,529757.0336254785,0,2008,1451,2
-1194.0998565327964,-230.14189082089982,245.67659625149952,246377.7521087053,173411.82896363633,531594.7353366901,0,2006,1452,2
-1244.443557908743,-258.813890131857,243.94787385928385,244482.98699538753,174727.57213905113,532732.7757875768,0,2006,1451,2
-1293.2130927130904,-289.43208922772624,241.90811843156635,242576.3335341328,175947.99650344337,533133.2827074066,8,2008,1451,3
-1340.0619710140172,-321.89113831458553,239.67120840393952,240651.5318717893,177073.01699408938,532759.2874450571,0,2007,1451,3
-1384.6404089914693,-356.0507781214149,237.3559627899151,238697.33122989684,178102.8962090424,531575.6962321632,0,2006,1453,3
-1426.603150063118,-391.7326774963103,235.0867414712664,236698.19178952466,179038.1034456442,529550.1900384452,0,2006,1453,3
-1465.6201012540557,-428.71476883562906,232.99481136770237,234635.41571797273,179878.94179737134,526654.2206734451,0,2007,1453,3
-1501.385921733944,-466.7239233938832,231.21927361224814,232488.40762850028,180625.02687941,522864.08538481995,0,2005,1452,3
-1533.625540714634,-505.4290497074475,229.90461845390575,230235.89664994858,181274.6459567367,518161.93602777197,0,2005,1453,3
-1562.0994983121157,-544.4376195990453,229.192736373065,227857.19820489504,181824.02267346976,512536.7708686081,0,2005,1451,3
-1586.609783540038,-583.2967908196044,229.21185875625093,225333.4079051551,182266.73150623825,505985.43616716284,0,2005,1453,3
-1607.005028624371,-621.5015396906005,230.06546463256478,222648.4446619549,182593.56906293012,498513.49314198067,0,2006,1453,3
-1623.186801694059,-658.5112118373287,231.82143510277186,219790.12873560967,182792.89814224825,490135.86678800656,0,2006,1452,3
-1635.1160657048777,-693.7667925716732,234.503536276623,216751.3463688517,182851.20194050993,480877.4474478347,0,2006,1453,3
-1642.8180836289503,-726.7024912266152,238.08777408062824,213531.26371404153,182753.70767433356,470773.53128201334,0,2004,1457,3
-1646.3860053317464,-756.7541542831656,242.50250508327784,210136.60408569386,182485.11973155662,459869.7510742186,0,2008,1454,3
-1645.9816443416723,-783.3656316336707,247.62995228601005,206582.75120845524,182030.33707794492,448221.7967508547,0,2002,1456,3
-1641.832648008355,-805.9951573107489,253.30863234293972,202894.22894705113,181375.1843316456,435894.91514763696,0,2008,1455,3
-1634.2295207993645,-824.1265353212846,259.3374153208959,199104.40846338673,180507.5103441836,422962.6010354373,0,2006,1455,3
-1623.5234429588506,-837.2823671455023,265.4824694062062,195254.80095292273,179418.68744878212,409505.0393262712,0,2010,1454,3
-1610.1167633319435,-845.0352398019659,271.4910821739419,191393.95724250842,178105.4199190908,395607.69498761726,0,2007,1455,3
-1594.4417278642952,-847.0188229969168,277.1125810616859,187575.62063031967,176571.83002502282,381359.4751190337,0,2006,1454,3
-1576.9375075084718,-842.9378144056224,282.1180244363538,183856.61989329525,174831.20363099079,366851.17322120955,0,2005,1454,3
-1558.032303138432,-832.5759670827669,286.31645237112576,180294.88402875455,172906.7518596726,352174.8123730925,0,2008,1453,3
-1538.1258568342364,-815.80922283425,289.57272453719605,176947.1258701439,170831.6183122728,337423.0990219409,0,2005,1458,3
-1517.5746492568885,-792.6263392554443,291.8285773016917,173866.5922044896,168648.6111345144,322689.24864107504,0,2006,1455,3
-1496.6876779546155,-763.1483463885764,293.12722124578346,171101.3250748025,166409.0723139179,308067.6615207923,0,2002,1460,3
-1475.7300632187394,-727.6372345703076,293.6309798533315,168692.19557792158,164169.79607007606,293654.48053228884,0,2003,1457,3
-1454.927118792812,-686.4942348487355,293.6111810077435,166670.6560467582,161988.32983343312,279547.3447496324,0,2004,1458,3
-1434.4662598333423,-640.2602335630614,293.3993167314026,165056.78619466614,159917.22646686994,265843.73056274693,0,2002,1457,3
-1414.4952002691518,-589.6283961218874,293.3108109429795,163857.53275490005,157997.5689097784,252637.534860783,0,2002,1459,3
-1395.1164799327457,-535.4654957635443,293.5743322898771,163065.342553142,156254.09477436793,240015.85894978896,0,2009,1451,3
-1376.3799370578345,-478.83150164230693,294.28521391215656,162657.82843180333,154694.31752585538,228057.31392858157,40,2009,1451,3
-1358.2734932194485,-420.9887642683206,295.3731633570402,162598.54065965879,153311.17705672764,216830.6065651537,231,2008,1451,3
-1340.7164982159418,-363.392564619366,296.5825053223258,162838.60790128255,152087.2568048213,206392.98065816765,801,2009,1452,3
-1323.5650495227032,-307.63108299658734,297.482806394673,163319.95023670385,151000.08840429626,196788.49230522712,1550,2008,1454,3
-1306.6336137601447,-255.28296843665592,297.52328263036253,163980.84118458783,150029.14983903314,188045.33927490708,2103,2009,1452,3
-1289.7248525428147,-207.72051145064458,296.12076806504683,164762.6484144409,149163.1695833944,180172.9845834658,2326,2008,1454,3
-1272.6588535837766,-165.90308463110765,292.77330689116087,165617.26987267775,148405.16612424393,173160.4688378247,2395,2009,1452,3
-1255.3016455445563,-130.2059491468629,287.19462243059036,166516.04201334287,147773.37932832452,166976.4572299694,2444,2010,1454,3
-1237.5941834285022,-100.37685387633417,279.4109594459695,167456.7552064262,147296.62325522886,161572.03279998485,2527,2010,1454,3
-1219.5804378218897,-75.6941426996425,269.7442568567948,168462.33433531653,147003.17258269197,156887.6677484265,2491,2010,1451,3
-1201.4234459321547,-55.27328591433704,258.69573056733094,169569.99785765892,146906.03023261283,152863.20198977753,2471,2011,1455,3
-1183.3943328047933,-38.34963513563256,246.81907698214903,170817.17169503658,146992.2712848561,149446.19250306947,2441,2013,1455,3
-1165.8294093526417,-24.40972474766207,234.62901505242445,172230.04782670262,147222.1179583477,146595.33767700993,2360,2011,1454,3
-1149.058546851765,-13.175781177624371,222.54043940037178,173817.5267491209,147537.86614856854,144279.05921889076,2387,2011,1452,3
-1133.3287403398347,-4.505200531561461,210.85476146519866,175573.19951513142,147878.93552409165,142470.7858641284,2406,2011,1453,3
-1118.7601090804537,1.7157487764339079,199.79680520846094,177482.97103979313,148195.66102958113,141143.97679120334,2443,2013,1454,3
-1105.3488915341463,5.6331513552322985,189.56406160025603,179531.37562479606,148455.9704882161,140269.49731583413,2501,2020,1451,3
-1093.0035260703044,7.4533213314539815,180.35728343859748,181703.73563882717,148645.10066828487,139815.36218822165,2503,2021,1454,3
-1081.5874144433435,7.45195491524897,172.3822406745623,183985.4026798692,148761.49288782096,139747.8584939407,2453,2016,1453,0
-1070.9530009629975,5.954848174590549,165.82235208146085,186359.9284360737,148811.35090153877,140033.41323215558,2522,2025,1453,0
-1060.9700310930791,3.2923988846024135,160.79375898422572,188807.61060067208,148803.2878233393,140640.55003744055,2608,2017,1453,0
-1051.547161265909,-0.24640174890146285,157.30698418538458,191305.02995243933,148744.72750909915,141541.03603580612,2554,2026,1453,0
-1042.639033555254,-4.441904711007788,155.25859662338033,193826.14933180079,148641.19961216263,142709.72879577958,2626,2029,1452,0
-1034.2388072409392,-9.154648783310998,154.45779357135123,196345.1867148534,148497.80663600692,144123.4633062917,2510,2029,1451,0
-1026.3649800656322,-14.32157174923472,154.67135949205314,198839.93767180847,148321.18072277447,145759.7009118078,2587,2029,1454,0
-1019.04989189563,-19.935810180539843,155.6664344218207,201294.11605760644,148120.38543044255,147595.42324085766,2581,2034,1453,0
-1012.3305506490747,-26.0136377452262,157.24133769346693,203698.5752260001,147905.8615635531,149606.44637505346,2475,2033,1455,0
-1006.2406500068618,-32.56308574521133,159.23920555901682,206051.45992706672,147686.7486149926,151767.29682722825,2378,2024,1453,0
-1000.8025268075438,-39.56636133985303,161.54385524434065,208357.3198816955,147468.3461068249,154051.5486547068,2343,2032,1454,0
-996.0196140405233,-46.974175997087976,164.06639707905606,210625.3788525666,147251.46062621305,156432.44465795407,2257,2032,1454,0
-991.8744726666449,-54.7058303948558,166.73321044120084,212867.10905728905,147033.73072094558,158883.76929184215,2104,2018,1453,0
-988.3335262817699,-62.65154543963441,169.48092654508332,215093.80873865986,146811.6963352018,161380.61458977516,1919,2021,1444,0
-985.3539501416161,-70.67704305069702,172.25676095623842,217314.84067872516,146582.49910564348,163899.74193185763,1779,2016,1453,0
-982.8899364265054,-78.63223380536866,175.0191489407736,219536.40244591222,146344.87509495902,166419.73612542276,1671,2012,1454,0
-980.8967243747119,-86.36216504340858,177.73537481653156,221760.67724552003,146099.38726733695,168921.05447359223,1459,2012,1456,0
-979.3310391517251,-93.71893505599323,180.37556186869227,223985.528855358,145847.92227657788,171385.98177271284,1408,2020,1453,0
-978.1494483829333,-100.5759038499708,182.90483777776123,226204.76176525204,145592.7876707142,173798.6542574043,1389,2018,1451,0
-977.307470532832,-106.84032153001111,185.27784627450714,228408.68078219407,145335.96213137935,176145.1328305233,1209,2014,1451,0
-976.7605422947474,-112.4586033355975,187.43930799679512,230584.88390924764,145078.79896101388,178413.41654095132,1247,2010,1454,0
-976.4659842354667,-117.41424385999746,189.3300645460295,232719.40647826725,144822.0287386842,180593.4068038126,1300,2012,1453,0
-976.3845683544737,-121.7215014124698,190.89472120832664,234797.86343456464,144565.83379095976,182676.76351622492,1287,2016,1451,0
-976.481241360754,-125.41693177981934,192.0888385366057,236806.29675446238,144309.91088321726,184656.6414045373,1147,2015,1451,0
-976.7256010371038,-128.5503489510544,192.88568388882874,238731.89755204172,144053.4932893435,186527.4455045225,944,2012,1450,0
-977.0921465366511,-131.17784325741331,193.28069087198838,240563.48041469336,143795.34171375586,188284.66305217962,859,2019,1455,0
-977.5593318179627,-133.35771718530887,193.29167738247995,242291.4830399249,143533.7609398959,189924.7889057927,762,2021,1452,0
-978.1074411697301,-135.1474932116178,192.9557201522454,243907.67654810223,143266.70264515196,191445.38315933937,714,2018,1454,0
-978.7166705680763,-136.60176729537116,192.32513220985606,245404.83598936765,142991.96057121042,192845.15346827437,649,2018,1451,0
-979.366476898257,-137.77268984377994,191.4634862497345,246776.50267346896,142707.42171931514,194123.96611862822,621,2020,1452,0
-980.0366946855876,-138.71311595626395,190.4405753646926,248016.9141687223,142411.31452258083,195282.85431038015,531,2010,1462,0
-980.7098355714642,-139.4796824125497,189.3266059741327,249121.0768540279,142102.36207521733,196324.01756482542,442,2010,1465,0
-981.3730082838624,-140.13305534042394,188.18720171880932,250085.0318774976,141779.7885173792,197250.71757332011,372,2028,1465,0
-982.0192484445412,-140.73528285559595,187.07975270182834,250906.39944817257,141443.23956024725,198067.07611868394,251,2020,1471,0
-982.6487160028215,-141.3463016195299,186.05152480665564,251584.95581558047,141092.7173833379,198777.8287851899,256,2009,1469,0
-983.269092290328,-142.02094991181508,185.13936974056574,252122.9071743611,140728.53183435983,199388.0387681701,218,2020,1474,0
-983.8948017731985,-142.80643453650336,184.36974052160306,252524.84926715118,140351.20749234527,199902.78009443227,190,2011,1477,0
-984.5457263089103,-143.74056138462893,183.75872337879898,252797.55397648504,139961.37280368558,200326.86651502026,118,2014,1470,0
-985.2459846131756,-144.85136232516615,183.3134860712014,252949.64494518982,139559.69583824996,200664.6913202132,96,2043,1469,0
-986.0230137818551,-146.15782923140193,183.03578161932273,252991.18751731925,139146.87378043038,200920.15197486666,60,2027,1476,0
-986.9072824846334,-147.67089226725685,182.92624712448594,252933.28680906058,138723.66008215322,201096.6014636231,52,1973,1509,0
-987.9327236958776,-149.39408937807633,182.98833213790016,252787.73442210892,138290.8670349342,201196.80563610952,9,1960,1521,0
-989.1372779577915,-151.32365682531957,183.23079841905846,252566.63279476605,137849.26277968538,201222.91381736728,27,1928,1539,1
-990.5628035432642,-153.4482274209839,183.66747811336657,252282.05327505464,137399.39237823855,201176.43924271,13,1945,1549,1
-992.2542784643307,-155.74927522777955,184.3146901196226,251945.84203118662,136941.40949790317,201058.22283365158,0,1929,1565,1
-994.2587807788987,-158.20293831923533,185.1882397443107,251569.53166141026,136474.97691238447,200868.37182834864,8,1950,1558,1
-996.6245991300678,-160.78199173355105,186.30177899043488,251164.29132760497,135999.29480838493,200606.2077931015,4,1944,1596,1
-999.4003162680658,-163.45667694497567,187.66711331586725,250740.90893148928,135513.26003280116,200270.25232521282,0,1933,1603,1
-1002.6338151474694,-166.1945140818523,189.29532736399466,250309.78489674572,135015.66485169606,199858.24705978515,0,1944,1608,1
-1006.3719469932431,-168.95953168190167,191.19705359458285,249880.883759107,134505.32227250823,199367.20338181674,0,1958,1596,1
-1010.6615070964476,-171.7110147360411,193.3814262407735,249463.60739143542,133981.0743578689,198793.48068874804,0,1927,1611,1
-1015.5513341636932,-174.4022340308466,195.85445473282778,249066.63994039223,133441.74658459803,198132.8821212731,0,1915,1612,1
-1021.0935818015788,-176.9813745649312,198.6166273829315,248697.83201150512,132886.08179521642,197380.75142289893,0,1914,1652,1
-1027.3397470899454,-179.3976984975581,201.65841894963012,248364.14591041446,132312.58370348244,196532.07367768424,0,1899,1638,1
-1034.3315392097536,-181.6093652496132,204.9553758812439,248071.7087804525,131719.33672173647,195581.59170296096,0,1883,1663,1
-1042.0947443762814,-183.58405634015983,208.46804304623296,247826.0192497498,131104.07442791297,194523.89350778362,0,1799,1725,1
-1050.6408313214552,-185.29324387154296,212.14837045692647,247632.2364515037,130464.6156338623,193353.41709910048,5,1831,1742,1
-1059.9718737937897,-186.7084103765791,215.94770796968922,247495.3604692858,129799.40331647087,192064.4463941448,7,1794,1775,1
-1070.0835794003783,-187.8002975339031,219.82200633606374,247420.14379991073,129107.74928274426,190651.2095688481,0,1811,1759,1
-1080.965754653228,-188.5384589142947,223.73385962192066,247410.78569266223,128389.68787118782,189108.06185861048,0,1762,1813,1
-1092.601706476395,-188.89180582947068,227.6513312742292,247470.63721016588,127645.69254346096,187429.69097359196,0,1816,1807,1
-1104.9676266372776,-188.83042049409892,231.54405391922572,247602.04732598527,126876.48452774098,185611.33646251028,0,1696,1905,1
-1118.0323643650931,-188.32703648008814,235.37906004143133,247806.29525922087,126082.95477236388,183649.02110039757,0,1730,1920,1
-1131.7583687487552,-187.3576973797791,239.1177695572265,248083.55771832142,125266.15102968669,181539.7481984028,4,1627,1987,1
-1146.1042358818943,-185.90216171797718,242.7139944059829,248432.92696895506,124427.29028083762,179281.62514281584,7,1572,2024,1
-1161.0271415532222,-183.94428678638022,246.1130221857708,248852.48016810033,123567.7836245207,176873.97590942157,6,1511,2103,1
-1176.4838293520918,-181.47260989309905,249.25212350974087,249339.41768883733,122689.27688741546,174317.46288034154,2,1454,2180,1
-1192.4310468235342,-178.48142494517128,252.06274910840403,249890.30033868516,121793.70291448812,171614.14146574138,1,1381,2221,1
-1208.8256932517736,-174.9717676592261,254.47413535660414,250501.29236085183,120883.37281263863,168767.4871699749,0,1292,2254,1
-1225.6245678345415,-170.95065048159074,256.4185333328962,251168.28629250915,119961.09678112774,165782.39042858698,0,1246,2327,1
-1242.7845039754397,-166.42790448357135,257.838276819476,251886.90837312592,119030.24733750764,162665.01987421137,0,1146,2391,1
-1260.2625106994055,-161.41272888713416,258.6919585839679,252652.41899705888,118094.70651023972,159422.68726054253,0,1061,2424,1
-1278.01485943174,-155.91227588928467,258.95684834635875,253459.49301273085,117158.68459408374,156063.868499735,0,1005,2499,1
-1295.9951789966206,-149.93225557886964,258.6280831493841,254301.91064051708,116226.4482921319,152598.30825152344,0,947,2538,1
-1314.151849540733,-143.47876949346337,257.7153044569847,255172.20654358514,115302.01707949236,149037.04743620663,10,819,2611,1
-1332.4247055937496,-136.56087606372296,256.23686386907525,256061.3269240242,114388.86227668592,145392.28090851946,5,747,2677,1
-1350.7410998377725,-129.19319021962946,254.2137112144366,256958.39327163578,113489.70195667126,141677.21369875505,13,703,2699,1
-1369.0115818675295,-121.39864881372583,251.66409967294328,257850.69535031074,112606.42798002606,137906.02897172753,4,627,2719,1
-1387.125944271074,-113.21232200192995,248.598006241426,258723.92184415928,111740.0772178344,134093.83299940953,0,632,2725,1
-1404.9500706234178,-104.68574315278059,245.0120942486481,259562.464353604,110890.85500756788,130256.65142726415,0,570,2752,1
-1422.3229801299158,-95.89011604876272,240.8873181409025,260349.7363931866,110058.3113306305,126411.55512809586,17,534,2776,1
-1439.0533884321358,-86.917932826869,236.18945264449385,261068.60651371052,109241.68464258495,122576.75497585833,13,457,2831,1
-1454.9157524894163,-77.88368337729021,230.8717470850073,261701.8666156247,108440.31292993613,118771.69722879733,8,452,2807,1
-1469.6463496529866,-68.92363631261688,224.8791630273953,262232.6374092344,107654.01462565063,115017.20624205872,17,478,2811,1
-1482.94028306857,-60.19414489957416,218.15354881520076,262644.7692178409,106883.41698022827,111335.53377782412,3,464,2817,1
-1494.4500458745272,-51.868890729864276,210.63857076681694,262923.17396962864,106130.23333788638,107750.3830603179,19,465,2844,1
-1503.7880256748206,-44.135072096888564,202.2845602178397,263054.0302200144,105397.56227568784,104286.98500535196,12,506,2809,1
-1510.5365443354733,-37.188259311415365,193.05454637092083,263024.9881271393,104690.32274902474,100972.12805496651,15,603,2764,1
-1514.265662316332,-31.227189373145226,182.93104316232248,262825.43140410364,104015.78419696132,97834.25921282682,24,695,2688,1
-1514.5607361054863,-26.4472805752081,171.92332958973114,262446.83562695474,103384.06982316573,94903.80000164683,9,731,2628,1
-1511.0603801672712,-23.029813006022483,160.07606987219324,261883.34930201434,102808.57546878318,92213.56182720384,9,828,2575,1
-1503.4902723575979,-21.129224302185083,147.4776506581376,261132.6076760826,102306.18311793603,89799.16635360979,19,959,2401,1
-1491.6764101137278,-20.860799200318933,134.2642219942235,260196.94261710328,101896.93020064448,87699.33493634473,0,1102,2277,1
-1475.5387315505377,-22.28556170380064,120.61678537562877,259085.21853584802,101602.88465078449,85955.76648323226,6,1178,2206,1
-1455.076465143045,-25.39290905869185,106.75277263863289,257814.92789583586,101446.5595923785,84612.47061166738,27,1358,2039,1
-1430.3531922059144,-30.085260289926797,92.91464820464486,256414.20867374117,101449.24212066708,83714.30691139701,17,1478,1953,1
-1401.4843549610223,-36.16728020302704,79.35713597091897,254923.84847125353,101629.26386520785,83304.63387727221,7,1609,1821,1
-1368.6304510458979,-43.343596635405866,66.33785312559908,253398.68876055614,102000.49787366763,83422.97813585331,10,1644,1809,1
-1331.9963322480216,-51.23026073395896,54.11432287726155,251906.96340079093,102571.14601843106,84103.55765052352,0,1752,1677,1
-1291.832476622749,-59.379088570326985,42.94281307726009,250526.75709551168,103342.39400163727,85374.44188745221,19,1762,1691,1
-1248.435967674263,-67.3053649747499,33.0737513938654,249340.6338919245,104307.08904517884,87257.08726233852,13,1840,1606,1
-1202.1482753302837,-74.51753000954018,24.740222079840667,248429.05730634218,105449.15937704228,89766.42624951857,6,1904,1551,1
-1153.3472317107964,-80.5567669592282,18.13934466309548,247862.3587683984,106744.12993273947,92911.58543047975,23,1905,1539,1
-1102.4385780726354,-85.03878804477151,13.414211148225384,247693.39074032474,108160.54368935745,96696.85859007566,14,1937,1507,2
-1049.85202317274,-87.68303828235906,10.642740609639393,247953.14685212687,109662.39683213583,101122.61511874085,0,2008,1452,2
-996.0390490867171,-88.32765631310171,9.832190080711452,248648.87179782306,111212.73503929154,106186.09442879468,9,2012,1452,2
-941.4705787656459,-86.93092006479229,10.919533222217439,249764.0482686179,112777.31849196082,111881.71255201033,4,2011,1457,2
-886.6321597940573,-83.55496796105862,13.783086902816942,251260.85956912997,114327.4726303772,118200.64207036469,10,2013,1452,2
-832.0130163377369,-78.33349316833473,18.266241351603632,253085.04169625405,115842.44702487193,125130.04779997475,0,2011,1455,2
-778.094074142281,-71.43614581875369,24.20216571593878,255171.161959055,117310.90450178129,132652.36980049947,0,2011,1455,2
-725.3391925859464,-63.03700821975553,31.429747134933525,257447.1347242441,118730.50391371775,140745.13633985643,0,2010,1453,2
-674.184575155688,-53.28535634084083,39.80371580575586,259838.72437956126,120105.61043409022,149381.68097091463,0,2011,1452,2
-625.0280138698107,-42.28787055254889,49.20146613420794,262273.6201359977,121444.38868095502,158532.19773926522,0,2009,1455,2
-578.2258944072886,-30.116938119440093,59.5212627899439,264684.0675461019,122756.28705352705,168164.7336800292,0,2006,1455,2
-534.0981314184615,-16.840846843824746,70.66930113029171,267008.3600820037,124049.9982308718,178246.35074031595,0,2009,1454,2
-492.9359770451193,-2.5543643724300913,82.54342323923352,269191.49821625,125332.13161325429,188743.89053250186,8,2010,1452,2
-455.00727833557744,12.605562964773663,95.02551990040413,271185.290875615,126607.09387651163,199623.9381801867,0,2009,1452,2
-420.5565770033501,28.458223908404552,107.98629595530033,272948.54123545723,127877.98272190696,210852.62210563596,7,2008,1451,2
-389.8037292261115,44.78477684294674,121.29563643218982,274447.4280980263,129147.63199992426,222395.36964592853,0,2009,1453,2
-362.9440723503613,61.33758225028968,134.83149133019973,275655.85784090933,130419.1558820329,234216.57919112,0,2010,1452,2
-340.148123445935,77.85302455922695,148.4849364107161,276555.7386382721,131695.95908460725,246279.63984832948,0,2010,1451,2
-321.5599914335677,94.06484951318532,162.1607528404624,277137.0890306396,132981.40249736377,258547.038199882,0,2009,1453,2
-307.2958453315297,109.71479218501638,175.77452623446592,277397.8858410037,134278.29739816618,270980.4062989063,0,2010,1454,2
-297.44219371940585,124.56118073873809,189.24919086729537,277343.71592320816,135588.40892056728,283541.0011059065,0,2008,1454,2
-292.0527190809108,138.38619954360982,202.51342045816543,276987.3472376606,136912.11225994347,296190.2220055393,0,2009,1452,2
-291.1436756095699,151.00128697087433,215.50227044367887,276348.26586979395,138248.25513439305,308889.6002076627,0,2010,1452,2
-294.6904500110536,162.24938859990067,228.15844029932984,275452.16107115,139594.16553555967,321600.5498787866,0,2008,1452,2
-302.62829434993904,172.00328935162685,240.43293804638992,274330.20240482234,140945.77200208258,334284.42385547794,0,2008,1453,2
-314.85674080138347,180.1614908186163,252.28517253405585,273017.9791745294,142297.84073698556,346903.11461711436,0,2009,1453,2
-331.24471293010174,186.64346877912755,263.68237688190544,271554.4158274046,143644.2144675897,359419.5523082469,0,2009,1454,2
-351.63618043328336,191.38500251300508,274.59934911788014,269980.92875206855,144978.0243966738,371797.7145449469,0,2009,1452,2
-375.8578440428469,194.33423626211334,285.0199361207183,268340.6445181777,146291.9779504809,384002.67744986434,0,2007,1452,2
-403.72596473600333,195.44994623777546,294.93896753002497,266677.66305873106,147578.61620980626,396000.5242404389,0,2008,1454,2
-435.04924099560225,194.70313562097056,304.36201894986004,265036.30296640017,148830.39452097632,407757.8569097699,0,2008,1453,2
-469.62904496999903,192.0812299084878,313.3025370203006,263460.041897663,150039.65253682886,419241.439340893,0,2008,1451,2
-507.258183023703,187.59217411552325,321.7776775962254,261990.3209984239,151198.56336915598,430417.9214539574,0,2008,1455,2
-547.7191336992726,181.26556918949626,329.80372477866587,260665.3065530337,152299.1862745716,441253.5316107875,0,2007,1452,2
-590.7834141455539,173.15018982982858,337.39130181270775,259518.328817414,153333.75084123283,451714.1598102266,0,2008,1452,2
-636.2109168083825,163.30967154830955,344.54122766930766,258576.2976436143,154295.06165188472,461765.5551536014,0,2008,1455,2
-683.7484889271997,151.8175350741695,351.2419545960748,257858.46676235797,155176.93765146492,471373.418069811,0,2007,1452,2
-733.1295066178825,138.75137435754522,357.46851979911895,257375.36934515156,155974.7683054995,480503.83600864117,0,2008,1452,2
-784.0737748935911,124.18766565786851,363.1826122202723,257128.01219134318,156686.0641142818,489123.7658215395,0,2008,1455,2
-836.2875697717932,108.19803844511964,368.3341613709896,257107.62651536125,157310.84450726677,497201.21889115206,0,2007,1452,2
-889.4659039749483,90.84576049306989,372.8647507813363,257295.90253200682,157851.91374513085,504705.5616249375,0,2007,1454,2
-943.2948967539795,72.18306479241716,376.71151429786147,257665.49341976963,158314.9650612862,511607.80831513193,0,2008,1452,2
-997.4521709272294,52.24996100000354,379.8105634342245,258180.85178266958,158708.2987817917,517880.65139961365,1,2007,1454,2
-1051.607526468391,31.073034363743673,382.10030694526614,258799.52011259893,159042.1281598022,523498.55255652743,0,2006,1454,2
-1105.4236918762056,8.664170132374641,383.5240333594356,259473.55990480245,159327.7532663606,528437.8339636243,9,2006,1453,2
-1158.5571570367738,-14.980333549481355,384.0311267913561,260150.97892440573,159576.81073911846,532676.5764872717,0,2007,1452,2
-1210.6616631727213,-39.880869143942995,383.5776777452266,260777.41484783057,159800.5703410542,536194.541658788,0,2004,1458,2
-1261.3923480403885,-66.07487481753128,382.1269146943269,261297.82710924413,160009.35792308653,538973.0971070887,0,2007,1453,2
-1310.4093081355925,-93.61549961103523,379.6492783723819,261658.03784651417,160212.1971139892,540995.0094775157,0,2007,1453,2
-1357.3836367815895,-122.56946775998207,376.1225750414588,261806.51168445323,160416.5572253986,542244.2447319818,1,2006,1451,2
-1402.0037210168502,-153.0134214787453,371.5329513575591,261696.2084268786,160628.1168951452,542705.832008318,1,2008,1452,3
-1443.9780918175918,-185.02506016496937,365.8772845281835,261286.18169402552,160850.5269004431,542365.7262791551,10,2006,1452,3
-1483.0359516999365,-218.6670122871562,359.16724483351373,260543.0742185108,161085.16908913883,541210.7130734376,0,2006,1452,3
-1518.925870473545,-253.9673073805736,351.4336920067672,259442.29747836705,161330.97884140114,539228.4611478406,0,2006,1455,3
-1551.414487812593,-290.90213985295327,342.7289526121306,257968.39148867392,161584.41978419427,536407.8285874135,0,2006,1454,3
-1580.2893597905722,-329.38339710784345,333.1262486476164,256114.5462977881,161839.6416731636,532739.4575288824,0,2004,1455,3
-1605.3649950057138,-369.25212312273163,322.71816723409876,253881.69009206962,162088.78447025266,528216.5637482533,0,2008,1451,3
-1626.4889791207759,-410.27943644237206,311.6156686446298,251277.263100376,162322.43686597192,522835.7833620254,0,2005,1455,3
-1643.5471425151936,-452.1733434385677,299.9467159936627,248313.58539337874,162530.24457536073,516598.0044542234,0,2004,1457,3
-1656.46552728798,-494.5853637115149,287.8528830921768,245006.37964308797,162701.4466418299,509509.2175551385,0,2004,1456,3
-1665.2090573691924,-537.1154095943411,275.48150369369785,241374.0552735658,162825.20952149137,501581.376002058,0,2009,1453,3
-1669.781077812606,-579.319251069722,262.97302473737795,237437.65044023283,162890.93620364682,492833.20014561835,0,2007,1454,3
-1670.2259797502716,-620.7170980607493,250.45028062475,233221.31495137257,162888.67378389108,483290.9764252903,0,2010,1452,3
-1666.6347359753536,-660.7999269980677,238.0159115030191,228753.34997615014,162809.6257054786,472989.1119754629,0,2011,1455,3
-1659.1533638266583,-699.0351263679142,225.75547640426342,224067.52494748376,162646.71639321346,461970.1002911245,0,2002,1461,3
-1647.9926483342394,-734.8710609477873,213.74164704961288,219204.19383257438,162395.0273658259,450284.2544559288,0,2002,1463,3
-1633.4354787148347,-767.7409628477161,202.03994548843892,214210.6387651756,162052.12011148225,437989.1906795003,0,2000,1461,3
-1615.837481706628,-797.0699486298162,190.7180308866679,209140.33718066014,161618.49272514295,425148.5252312546,0,1998,1462,3
-1595.61913733407,-822.2840113538831,179.85633829156765,204051.58030590953,161098.18250853586,411830.5353686746,0,1998,1466,3
-1573.2496096823654,-842.8194095273616,169.55666673337234,199005.55725747894,160499.29534393764,398107.4714725683,0,2000,1464,3
-1549.2235029234091,-858.1342751029244,159.9486315780188,194063.58343302077,159834.28051191982,384054.96721017204,0,1998,1463,3
-1524.03810217129,-867.7202841778021,151.19342313949423,189284.23843410428,159119.8317800172,369751.72327099735,0,2000,1467,3
-1498.175614308519,-871.1155226531264,143.48053264872448,184720.91166292917,158376.24531290153,355279.7060150066,0,1998,1463,3
-1472.0855650340404,-867.9255354720091,137.0155773315867,180419.17775818377,157626.1983523266,340724.22917811264,0,1996,1465,3
-1446.1708653237406,-857.8527766095739,132.00492849838807,176414.5853158195,156893.43971646248,326174.11706124153,0,1993,1466,3
-1420.7876269188594,-840.7331488646307,128.64293714706554,172731.92564818036,156201.80465937866,311722.05671267165,0,1994,1471,3
-1396.2557354972841,-816.5763999773208,127.10320024334214,169385.70837275442,155574.33942266097,297464.2677322276,0,1994,1467,3
-1372.8676538511827,-785.594140225949,127.53173855192674,166381.2141220038,155032.31327056084,283499.3972527502,0,1994,1471,3
-1350.8871255942595,-748.2017811221154,130.0333076045023,163716.17786254737,154593.80767795804,269926.1761233131,0,1992,1467,3
-1330.5386540092632,-704.9996109113082,134.64798725550853,161383.29619162937,154271.5945475997,256839.05636397682,0,1993,1471,3
-1311.9960008462974,-656.7487304240956,141.33031951163406,159372.91640718747,154071.09190209824,244323.7387347788,0,1991,1467,3
-1295.3743437993978,-604.3480421190854,149.9389136147369,157674.90871091367,153989.6111792337,232454.3614832752,0,1994,1468,3
-1280.7234992917993,-548.8092133063545,160.231682996037,156279.4806981431,154017.0787389192,221291.5417433891,0,1995,1466,3
-1268.022173237507,-491.23657255179097,171.86302320500425,155177.21151525687,154137.58542970603,210881.22788998464,0,1992,1467,3
-1257.175907200815,-432.8195295621778,184.3851249508672,154358.52194979996,154331.4995701289,201254.88530926616,35,2000,1463,3
-1248.0183365008018,-374.8324231978973,197.25419228782974,153812.812121606,154578.187076685,192430.31393006112,98,2010,1457,3
-1240.3147361430454,-318.63163619717506,209.8395593788926,153527.8297433576,154858.57729553682,184412.63059104249,296,2010,1454,3
-1233.769215184659,-265.6238529243179,221.44361279855565,153490.15192412215,155157.0307105822,177195.32070272273,1101,2009,1452,3
-1228.0362650215322,-217.18111588055876,231.3447411345572,153687.2108824861,155463.14448463698,170760.97024342444,2026,2011,1452,3
-1222.7358803351553,-174.51493274311753,238.86178329346274,154110.13693644662,155773.81759662874,165081.61498615943,2277,2010,1452,3
-1217.4782423099346,-138.51006386857838,243.44689719109246,154756.7530334761,156095.10784541938,160118.79452101665,2335,2013,1454,3
-1211.9031836287495,-109.51894003616117,244.81078680168858,155634.86905869242,156443.1270609632,155823.32360358787,2414,2012,1453,3
-1205.7243133330926,-87.22228986876203,243.02089797312343,156764.6860837594,156842.17951462537,152135.8452360583,2452,2013,1453,3
-1198.764620460569,-70.70443598966526,238.49063674044024,158177.0788264268,157317.24269846006,148990.4288260006,2486,2014,1451,3
-1190.9733324812978,-58.73744317719813,231.8640548440272,159905.34334573284,157881.60625080796,146322.0344834459,2466,2016,1452,3
-1182.417531600459,-50.09493345860862,223.8822347065544,161972.52100274593,158526.69337774348,144075.1639338099,2338,2018,1451,3
-1173.2537216172705,-43.76128113611503,215.2816938812321,164380.514189771,159219.47300239356,142209.87682492562,2162,2015,1452,3
-1163.6831226459196,-39.0269229868316,206.71183600130036,167105.97406031072,159907.9063526162,140703.2365837844,2167,2009,1453,3
-1153.8958057183954,-35.47594835925594,198.67736379526482,170103.59073132853,160532.9306340729,139546.4455981651,2031,2011,1451,3
-1144.027004521191,-32.90402216231782,191.52762380282826,173313.90994991545,161041.6743522959,138739.66187147435,2001,2020,1455,0
-1134.1489426018072,-31.232925843623747,185.48447564917592,176672.33656006376,161395.9861541303,138286.1936966773,2013,2029,1454,0
-1124.295497251817,-30.436334749809145,180.68271686575193,180117.07012335726,161575.36103257694,138186.66216947234,1937,2052,1451,0
-1114.4942727029209,-30.478596932162638,177.1979234513834,183593.50418123737,161575.79364461923,138434.81051616708,2015,2072,1455,0
-1104.7844513218226,-31.286164883044847,175.05291897053425,187054.74695877984,161405.73368905167,139016.63350628677,1965,2074,1452,0
-1095.2199731956853,-32.75673794251157,174.21483701493764,190461.14950215825,161080.55425986045,139912.06579787517,2027,2081,1452,0
-1085.8667371734578,-34.78890058848346,174.59443286459052,193780.65953805024,160617.63064408267,141097.19007049943,1907,2089,1451,0
-1076.7962619999676,-37.30643770065066,176.04979344295072,196989.56747183742,160033.16332014828,142545.7664590223,1774,2109,1454,0
-1068.0762626646435,-40.267064407239644,178.39403588881547,200073.04921271335,159340.5379656937,144230.19414158125,1601,2099,1456,0
-1059.7630274369396,-43.66068649754423,181.40788111036466,203025.20624299973,158550.46892199726,146122.1954828185,1656,2065,1459,0
-1051.898794872245,-47.49754871581373,184.86039413865313,205848.29309228304,157672.55680643846,148193.1500809112,1427,2072,1457,0
-1044.511387986331,-51.78484191804012,188.53484354309592,208550.9264731393,156716.68764524112,150414.17843793225,1332,2064,1457,0
-1037.6128166813917,-56.50081927314785,192.24557614198116,211145.53045550818,155693.42533136025,152756.22620346752,1249,2052,1460,0
-1031.197471820689,-61.58027868131623,195.83955245538485,213645.80562853414,154613.6110257424,155190.24961638494,1042,2034,1462,0
-1025.2433892921706,-66.91773646691504,199.18947700458102,216064.58649995632,153487.65973696238,157687.70305437242,959,2024,1481,0
-1019.7186066218928,-72.38388813610227,202.18475533254406,218411.86466060663,152324.99674868485,160221.45361961785,879,2031,1493,0
-1014.5902465944414,-77.84454663813068,204.72445606905796,220693.24390153424,151133.97191120987,162766.63886583678,714,2022,1489,0
-1009.8322372147594,-83.17656819729046,206.71633208544114,222909.460232421,149922.31020466087,165301.04956884662,670,2012,1509,0
-1005.4290770746226,-88.2823055266809,208.0820697242363,225057.0104063915,148697.75094094823,167805.21854796508,593,1975,1528,0
-1001.3747811252036,-93.10009642514395,208.76522425710016,227129.31472884017,147468.463678588,170262.35851061836,399,1967,1527,0
-997.6682285408111,-97.60621567771554,208.73919340653694,229118.19174233638,146243.08380089916,172658.13949506846,278,1969,1553,0
-994.3084219482384,-101.80907972665925,208.01428966371805,231015.75241516987,145030.45409284165,174980.39176959268,175,1959,1564,0
-991.2928985160942,-105.73960554395478,206.64107821802088,232816.08772908302,143839.2750403063,177218.77620650604,69,1958,1563,0
-988.6189452159754,-109.43973104238306,204.70604204143223,234516.06235427587,142677.68775252494,179364.46367679667,125,1944,1572,0
-986.2851152123408,-112.95010907337239,202.3198716709102,236115.39016385018,141552.69680170226,181409.89459241484,76,1951,1589,0
-984.2917204489398,-116.30101033605396,199.6042260918947,237616.3031865327,140469.64380918158,183348.5919177027,48,1960,1589,0
-982.6400463286833,-119.51016254376432,196.68081138469512,239022.86559567988,139431.9807317592,185175.05269038497,19,1903,1603,0
-981.330609801427,-122.5863950553629,193.6618419022876,240340.06186625274,138441.284523977,186884.81011046155,9,1895,1612,0
-980.3615049867257,-125.5352426050131,190.64267556223797,241572.9816589417,137497.41196311524,188474.57858395608,0,1876,1622,0
-979.727478992369,-128.36390848683968,187.6980458427092,242726.39094388764,136598.76294266072,189942.3634079633,0,1810,1698,0
-979.4194706882672,-131.0848491713437,184.8805986592795,243804.70378216228,135742.59413548958,191287.5318129636,0,1873,1665,0
-979.4244395742683,-133.7171216342553,182.2213434247913,244812.1764178993,134925.31957180935,192510.77295469693,0,1834,1702,0
-979.725674124467,-136.28531654940176,179.73290392189227,245753.19008600834,134142.77758876892,193613.89383412345,0,1804,1721,0
-980.3036091429996,-138.81726485491743,177.414731980232,246632.5428623066,133390.4754405119,194599.55244252124,0,1702,1812,0
-981.1371288485959,-141.34104816644316,175.25907583152005,247455.64278182187,132663.81031868968,195471.04065565384,0,1718,1792,0
-982.2051990905712,-143.88161530595949,173.25748842253785,248228.5632236161,131958.25765478952,196232.13997304032,0,1702,1808,0
-983.4882573869601,-146.45809705895468,171.40659146076624,248957.9802419615,131269.5251264204,196887.00633206766,0,1665,1838,0
-984.9692446549552,-149.08204168902552,169.7119316823718,249650.98401663158,130593.6632662929,197440.0415377571,0,1631,1887,0
-986.634751271788,-151.75581760768875,168.19063918444493,250314.7838834319,129927.12536160146,197895.7527611651,0,1656,1856,0
-988.4765353575979,-154.47118089685938,166.87312732156846,250956.36682561963,129266.78494013417,198258.61789416877,0,1647,1893,0
-990.4929340442324,-157.2090783207016,165.8025585140899,251582.11632583695,128609.86426315244,198532.9577106368,0,1539,2019,0
-992.6881612368527,-159.94179876652777,165.03119933096366,252197.37322790376,127953.7143260988,198722.80921632497,0,1499,2045,0
-995.0691576151785,-162.63655323610385,164.61441907302267,252806.05630200126,127295.53673469323,198831.81141791417,0,1407,2095,0
-997.64355335286,-165.258092598152,164.6032182586511,253410.49373152253,126632.16820537449,198863.1162201251,0,1435,2062,1
-1000.4205629705066,-167.77015564691365,165.0372037351272,254011.47079150338,125959.98336149367,198819.3117528259,0,1439,2114,1
-1003.4131639441206,-170.13721408667502,165.9425251790585,254608.49573166322,125275.03837858248,198702.31205121035,0,1379,2187,1
-1006.6400574750368,-172.32598652715225,167.3361837857391,255200.25133684618,124573.48130104107,198513.18375023082,0,1273,2267,1
-1010.1266855129675,-174.30502874010742,169.23235618545468,255785.00809027578,123851.97419899188,198251.96631162564,0,1238,2263,1
-1013.9055275029704,-176.04236718774223,171.64677998999392,256360.86800794504,123107.80793317805,197917.5408240517,0,1256,2239,1
-1018.0162068702393,-177.50232073912224,174.59832728320953,256925.903399851,122338.63645272839,197507.52651099104,0,1164,2312,1
-1022.504918328509,-178.64277617764694,178.1079499394976,257478.1848317228,121542.07769624954,197018.20779433675,0,1118,2375,1
-1027.4229266132588,-179.41386255096168,182.19570237205699,258015.651868093,120715.44075429594,196444.5262077933,1,1106,2371,1
-1032.8253049953394,-179.75804691324134,186.8770557937435,258535.86497706527,119855.62549703292,195780.141491096,1,1058,2401,1
-1038.7709067830008,-179.61144793373614,192.15993253956574,259035.72502507403,118959.17906888518,195017.55213840312,6,1018,2437,1
-1045.323035910867,-178.9070087613194,198.04296617507362,259511.23707503956,118022.45933063091,194148.25562073186,5,984,2468,1
-1052.5497731093187,-177.57963620016386,204.51375424084245,259957.35994162437,117041.7773852238,193162.9292689057,7,897,2517,1
-1060.5233416275555,-175.57099060504646,211.54618038347905,260367.98217609857,116013.4548092143,192051.62310977114,2,814,2568,1
-1069.318511382887,-172.83170423325328,219.09737108659448,260736.06024990772,114933.8265623435,190803.95349890704,7,785,2592,1
-1079.0104814080864,-169.32164274395572,227.10512293946212,261053.889092152,113799.24517085303,189409.29213664556,3,663,2685,1
-1089.672613042112,-165.00965284145457,235.48669346956908,261313.48279182173,112606.12398522021,187856.94330015028,0,612,2703,1
-1101.3743192966565,-159.8733535687011,244.13937061388887,261507.05371381927,111351.0057770451,186136.31813572455,0,587,2726,1
-1114.1792957214464,-153.8990984328671,252.94183443748233,261627.434961936,110030.64059466917,184237.16382793654,6,554,2763,1
-1128.1439308284237,-147.08180525118217,261.75603843190345,261668.3217828161,108642.05135988953,182149.88828414358,8,491,2810,1
-1143.3154408179603,-139.42464327093222,270.43069378164336,261624.41049135034,107182.56023654457,179865.95364596584,0,423,2846,1
-1159.7294222061464,-130.93907401887395,278.80564948871654,261491.48471541153,105649.82723772286,177378.30247274644,0,408,2867,1
-1177.407548807681,-121.64454905295476,286.71572767998873,261266.38048573327,104041.90937895516,174681.78046707943,0,365,2915,1
-1196.3564632995224,-111.56687152736752,293.9940747652974,260946.81961820964,102357.26357352846,171773.51549373922,0,302,2946,1
-1216.5673635083726,-100.73620824623137,300.4746752341553,260531.2002133165,100594.72975140408,168653.255093387,0,239,2971,1
-1238.0155055752668,-89.18589820671197,305.9939296877138,260018.35862562715,98753.5420592819,165323.61318872575,0,230,2986,1
-1260.6600007825984,-76.95186387415784,310.39226961396236,259407.25709895734,96833.31826673594,161790.16302312352,6,169,3025,1
-1284.4436436177807,-64.07272521021379,313.51568312731933,258696.68914712587,94834.0709187195,158061.49851076407,0,146,3033,1
-1309.2924183909145,-50.59056858502724,315.2173998866014,257885.08304426636,92756.30144190686,154149.2868952643,0,106,3063,1
-1335.1150849467097,-36.55155897592572,315.36149497231685,256970.34540211232,90601.14365671265,150068.163033454,11,85,3079,1
-1361.8020293513391,-22.006372984795682,313.82833567618025,255949.7227236418,88370.5835344024,145835.59074636546,6,60,3093,1
-1389.2224754913912,-7.010897910340041,310.52014598726123,254819.67177078026,86067.79551005292,141471.87812464245,11,19,3110,1
-1417.2204695967505,8.372706955428704,305.3661649212347,253575.69364531548,83697.51898349344,137000.2844762138,0,13,3122,1
-1445.6101346878418,24.074224044368332,298.3274324711009,252212.07474045537,81266.30931523233,132447.04844418078,15,0,3116,1
-1474.1708580674617,40.012478127298095,289.4005886166971,250721.5156607771,78782.56620746086,127841.2264022241,0,0,3122,1
-1502.6430144571823,56.091339177993625,278.6196357280759,249094.8246016034,76256.46927268416,123214.52974871508,0,0,3124,1
-1530.7246741126653,72.19506031061354,266.0546206778735,247320.8524533945,73699.93426304258,118601.25543237865,20,0,3131,1
-1558.0698873769998,88.18406964609441,251.80764452942734,245386.63927644418,71126.5559091999,114038.09748165529,0,0,3126,1
-1584.2882758439998,103.89213830559277,236.00884931320502,243277.73613668582,68551.63439793927,109563.92261659895,6,4,3114,1
-1608.9456294303104,119.1245798836041,218.8143016219628,240978.70505752202,65992.39646012835,105219.67847292748,13,23,3096,1
-1631.5659677574017,133.65699509159,200.40535714102705,238473.7410773237,63468.3121955804,101048.33053696551,10,96,3052,1
-1651.637099800124,147.23651780371767,180.9889372572876,235747.4004284815,61001.336394629514,97094.65578158555,18,155,3022,1
-1668.6216841688067,159.5884351748706,160.7987458081441,232785.47280534814,58616.00312949163,93404.80606820465,15,262,2938,1
-1681.9715155966253,170.42699025879995,140.09746184221515,229575.9407326202,56339.467045507015,90025.88594329644,10,372,2869,1
-1691.1460347669265,179.46901913728095,119.17754208087634,226109.96879894743,54201.40388077389,87005.75119522112,11,531,2735,1
-1695.6395947588862,186.45129893868196,98.35648019028667,222382.95546604233,52233.4497914779,84392.9063453737,23,726,2569,1
-1695.0106087644167,191.14790368669233,77.96595200741719,218395.67919413184,50468.17787206166,82236.51333819893,22,818,2484,1
-1688.9041698879998,193.3863908630693,58.33385614667988,214155.79576694613,48937.562564629734,80586.39327113626,15,1017,2322,1
-1677.0712071928567,193.06818013460258,39.75802955135759,209679.96715561117,47670.79837982917,79492.61796859773,13,1115,2248,1
-1659.384118088425,190.19195413419433,22.480888187814127,204996.2157278656,46692.12157277579,79004.59479836526,16,1282,2109,1
-1635.8404411349652,184.87463785352202,6.674383294360649,200145.75475947227,46019.16949706693,79169.52800812585,3,1497,1938,1
-1606.5508209623135,177.3664739631445,-7.566986047203685,195183.99338909783,45661.66156914691,80030.14146125036,4,1552,1860,1
-1571.7188309900714,168.05115769197536,-20.22709465850373,190180.7607244663,45620.65074598795,81622.49558682533,15,1681,1739,1
-1531.6213074341674,157.4149261785743,-31.359024483251417,185219.2782342301,45888.98892008121,83974.9316600594,0,1834,1611,1
-1486.5916565414864,145.98222078817477,-41.06526483071466,180393.25876846613,46452.832817335635,87108.19670125762,7,1892,1556,1
-1437.0111245857402,134.24561734090275,-49.4756107337603,175802.71186357643,47293.18438057112,91036.11952587403,0,1910,1535,1
-1383.3121637826673,122.61546254701094,-56.73251262472964,171548.43316412278,48386.98113811351,95766.01932914957,0,1962,1490,2
-1325.9884437614598,111.39022768695085,-62.987438914835316,167724.3142201552,49708.53517169866,101298.43729160067,0,2013,1451,2
-1265.6026193794626,100.74710658179015,-68.40479418411412,164409.67423906413,51231.975600967,107626.46891375714,0,2012,1453,2
-1202.7824976238132,90.75397301859465,-73.16376136481377,161665.21011253566,52934.00263715971,114735.1047216939,0,2013,1452,2
-1138.1994323940567,81.39799958645969,-77.44879521185399,159533.0975805104,54796.189561628504,122601.05767113733,0,2013,1452,2
-1072.5376372896053,72.6237580700757,-81.42886357168001,158039.50623867498,56806.69165173198,131193.3618194748,0,2010,1451,2
-1006.4704344565318,64.37112099038534,-85.2354129249829,157197.6626176764,58960.79392247041,140474.21933848748,0,2010,1452,2
-940.644192434778,56.605501946308486,-88.94636065616054,157010.64195639375,61259.505219542014,150400.00568610034,0,2009,1453,2
-875.6626348646749,49.33429958945683,-92.57436063600338,157473.96778925104,63706.4917495953,160922.9919637706,0,2008,1453,2
-812.0784250455558,42.60332574619287,-96.06247271947558,158577.32826410586,66304.78866102295,171993.08933592885,0,2008,1457,2
-750.4001713336525,36.474970231905466,-99.30012596127789,160304.3098040435,69054.32356474716,183558.8226532109,0,2009,1454,2
-691.1053630818269,30.999634806921225,-102.15984120702299,162630.51602673242,71950.3158026009,195567.96868578662,4,2008,1450,2
-634.6469978242311,26.195834846902045,-104.53212152214745,165521.80905023208,74982.74354498804,207967.86807685264,0,2005,1455,2
-581.4520429717024,22.046456997048107,-106.33957749403062,168934.20097223975,78137.47273946107,220705.45377660726,0,2006,1454,2
-531.915182807783,18.505921391017008,-107.53409797779345,172815.44970250793,81398.8985916054,233727.61141915596,2,2006,1455,2
-486.39393158276175,15.510071642444847,-108.08815453076585,177107.10772322537,84752.59593437838,246981.51374660485,0,2004,1456,2
-445.2076258406908,12.985588341186865,-107.98298179825221,181746.37855215874,88186.81810070705,260414.72370657546,4,2006,1454,2
-408.6368191132678,10.859126211633036,-107.19327955367848,186668.0748326692,91693.05360854854,273975.7253162619,0,2005,1452,2
-376.92242159929464,9.064569786117225,-105.67442621099019,191806.25410003224,95265.83194393665,287614.51677392493,0,2005,1454,2
-350.26500677358325,7.545892311475379,-103.360470612974,197095.12409513525,98901.56756045096,301282.898434725,2,2006,1455,2
-328.82193076727094,6.255725456052782,-100.17433093098288,202469.73140433422,102596.65918190694,314935.03842674615,5,2008,1452,2
-312.7035070543144,5.151593141628262,-96.04372082988328,207866.587998424,106345.64265202357,328527.9656085353,0,2008,1455,2
-301.9717106426724,4.1916541212158345,-90.91593658873467,213224.27501948277,110140.23348552642,342021.558946606,0,2008,1452,2
-296.6414150547832,3.330712550424692,-84.76893531229301,218484.38571640928,113969.44803119317,355378.5555764282,0,2007,1455,2
-296.68347932080246,2.51662642840035,-77.61704091310013,223592.44481353046,117820.27132038353,368564.40903820714,0,2008,1452,2
-302.0295208195187,1.68747204580893,-69.51153633486727,228498.40205025976,121678.48005218717,381546.81923819514,0,2004,1455,2
-312.57661256323166,0.7704264164241987,-60.53904394756968,233157.06010150237,125529.62412436193,394295.5076041935,0,2006,1454,2
-328.19079453081963,-0.31678890633621554,-50.81741555535042,237528.52651243156,129359.80935692097,406782.05222884536,0,2004,1454,2
-348.709554593528,-1.6626234900465298,-40.48744048025109,241578.50298122637,133155.9196537139,418979.3326461726,0,2007,1452,2
-373.9425979304865,-3.358349798193947,-29.70346662630878,245278.47204510093,136905.4783354512,430860.83849710046,0,2006,1451,2
-403.67166257999804,-5.495127825397709,-18.626399478514067,248605.80205768094,140596.42649885154,442400.3385477946,0,2007,1452,2
-437.65153711357874,-8.160887699464144,-7.418484455335495,251543.74469290138,144216.9410356908,453572.1493711647,0,2006,1455,2
-475.61169786808165,-11.437787526032535,3.760643237805815,254081.24644673092,147755.29796656003,464351.43274042505,4,2006,1453,2
-517.258069201704,-15.401754075209006,14.757385114989557,256212.4460928511,151199.88627751832,474714.13523503335,5,2006,1451,2
-562.2761158459086,-20.123968274826375,25.428735976042976,257935.900809774,154539.55306257316,484637.0076108063,0,2006,1453,2
-610.3335628780352,-25.672846637938253,35.6468784049555,259253.7102758431,157764.0722669505,494097.5844478061,0,2006,1450,2
-661.0823819999162,-32.1165968771948,45.302667250181514,260170.6089100135,160864.56834607344,503073.9221828983,0,2005,1451,2
-714.1630603065811,-39.52757780427851,54.30882094746317,260693.02450020943,163834.0368298747,511544.51856214355,0,2008,1454,2
-769.2095120499155,-47.987123086629474,62.601731569326,260828.27314236257,166667.74621333732,519488.3140011467,0,2008,1450,2
-825.8525411222557,-57.588322792577635,70.13946221194567,260584.07102696216,169363.18576386027,526884.5871358232,0,2004,1451,2
-883.7238065375186,-68.43658435687257,76.89602588285726,259968.35052710623,171919.65163340367,533713.0501143753,0,2006,1451,2
-942.4586292065551,-80.64851523687872,82.8554228171011,258989.35080129228,174337.68268203436,539953.9580248547,0,2004,1455,2
-1001.6962326046155,-94.34909141364555,88.00919089386267,257655.92683598405,176618.49477045314,545587.9467411838,0,2006,1451,2
-1061.0804004807262,-109.66778320789453,92.35727203233685,255977.87251201013,178763.54819728518,550595.8049144307,0,2006,1451,2
-1120.259263303177,-126.73492401970724,95.90923767506865,253966.10561059133,180774.28039755422,554958.1805464375,0,2003,1455,2
-1178.8820808467324,-145.67928531482357,98.68453450171484,251632.81311365686,182651.98019025556,558655.2314731788,0,2003,1456,2
-1236.5966041301513,-166.62688374962744,100.7121766929653,248991.74419707945,184397.7393022994,561666.5296814878,0,2005,1457,2
-1293.0494349063792,-189.6998148903114,102.03010819764228,246058.68907976284,186012.34288742725,563971.1328058348,0,2004,1458,2
-1347.8897928025435,-215.01377469511417,102.68414853220028,242851.94840911348,187496.08478800446,565547.4593548111,0,2005,1457,2
-1400.7756944129376,-242.6738278635802,102.72672829612765,239392.57300866753,188848.62667287322,566372.9581231325,0,2003,1457,2
-1451.3767417588028,-272.7684254989553,102.2161678050221,235704.42015120547,190068.91246301142,566423.8460959392,0,2006,1457,3
-1499.372147231166,-305.3617305440551,101.21714366980375,231814.08793578748,191155.10364073503,565675.2811632175,0,2004,1455,3
-1544.4496886995232,-340.4847281996361,99.80172834778166,227750.68544863167,192104.55535503416,564102.1267472362,0,2005,1459,3
-1586.3068015378908,-378.1260188757633,98.04974367406001,223545.6415302828,192913.80658318527,561679.9617216671,0,2010,1451,3
-1624.6528033380662,-418.2226227098295,96.04823886166382,219232.61079630855,193578.60391291074,558385.9895198079,0,1995,1461,3
-1659.2142035015324,-460.6507053661484,93.8910933696716,214847.19912186995,194094.06323528677,554199.9152760558,0,1994,1467,3
-1689.7418206667378,-505.21700268134794,91.6795694412056,210426.5592978523,194454.9742048209,549104.8836109008,0,1997,1465,3
-1716.0185475388419,-551.6530600307268,89.52343268397321,206008.9020080497,194656.23063487737,543088.3833908105,0,1985,1467,3
-1737.8697836097272,-599.6136403928339,87.54154789256536,201632.73686567618,194693.3508822895,536143.0745007842,0,1975,1477,3
-1755.173448507417,-648.6770829302216,85.86116345631224,197336.1668774209,194562.83815202836,528267.6181662882,0,1980,1474,3
-1767.8656764111292,-698.3463740336055,84.61486830241623,193156.49710105013,194262.1696407105,519467.4518638504,0,1979,1479,3
-1775.9442653410053,-748.0528952672302,83.93455184954571,189129.8680410327,193789.55208816263,509755.3947092258,0,1979,1475,3
-1779.4721838754424,-797.1618698954375,83.94460168611371,185290.91944574687,193143.7528292207,499152.3097995901,0,1982,1474,3
-1778.5822197701016,-844.9789999971433,84.75751103571059,181672.45943761242,192324.180783942,487687.8300239978,0,1979,1475,3
-1773.4827564929824,-890.7594870285941,86.47233839492677,178304.72367827068,191331.1684563482,475400.7871597207,0,1977,1482,3
-1764.461890813217,-933.716156415702,89.17458973753904,175214.24692569728,190166.2863838609,462339.4876124621,0,1958,1492,3
-1751.8861246749248,-973.02985700133,92.93440959417985,172422.36362720412,188832.5570761469,448561.67302043026,0,1956,1501,3
-1736.1906379496713,-1007.8715803011266,97.79947506749943,169943.18488449935,187334.57932945646,434133.5525455171,0,1957,1494,3
-1717.8606362090482,-1037.4314390037855,103.78509534694496,167781.96391110212,185678.63022346428,419128.6187239775,0,1946,1503,3
-1697.4031200302309,-1060.944745746416,110.86968726183927,165934.98388401963,183872.712866396,403626.9926224453,0,1942,1507,3
-1675.3137274486598,-1077.7146800918463,118.99866301394658,164390.63909898535,181926.56655820468,387714.85859550355,0,1940,1517,3
-1652.052105928867,-1087.1300584267979,128.09014770404698,163130.49768131063,179851.8389089787,371484.22077646374,0,1960,1494,3
-1628.0301281625684,-1088.6849407275984,138.0350541859749,162129.788042821,177662.6750465622,355033.1631555361,0,1989,1475,3
-1603.6093202315053,-1082.0157457590064,148.69285812842,161357.8818107331,175376.8534754657,338466.0413478341,0,1973,1482,3
-1579.1076417736203,-1066.9484955557455,159.89257537003496,160779.48063760228,173017.13393719334,321893.93435162754,0,1963,1492,3
-1554.8109615034007,-1043.5333561938928,171.4462007497637,160356.76848928444,170611.8303107882,305434.90395989537,0,1974,1481,3
-1530.9814743934778,-1012.0616086366106,183.16641035736393,160052.36195557806,168193.74827050432,289212.2823028217,0,1976,1482,3
-1507.859062493012,-973.0693210535687,194.87272830510753,159832.25221402902,165797.70478339284,273351.18666806625,0,1977,1478,3
-1485.6519418695705,-927.3219300292232,206.38334597216374,159668.3771286511,163457.1184337093,257973.9011752155,0,1978,1477,3
-1464.518888085844,-875.778064550124,217.4989654873262,159541.04019267816,161200.15262976722,243193.96401416798,0,1982,1474,3
-1444.5536404844302,-819.5498027382894,227.98537503997082,159440.46586894974,159046.95911610546,229111.244399388,0,1984,1472,3
-1425.7738225082292,-759.8717577775003,237.56237783312636,159366.3893415443,157009.4245535363,215809.88195776645,0,1985,1474,3
-1408.1075048244645,-698.0752104819816,245.90278078750285,159325.77980808425,155093.16519901212,203357.72778394,14,1991,1467,3
-1391.3805817261386,-635.5692491315195,252.64028487060776,159330.02597629643,153300.54912894737,191806.4782604365,323,1994,1463,3
-1375.3179633310374,-573.8241888240889,257.39002782022794,159392.60005469987,151633.9859234607,181192.5944213835,1120,2001,1463,3
-1359.5640024714692,-514.3378798902837,259.78775935840866,159527.3058299821,150099.36349636407,171538.2942695309,2545,2011,1453,3
-1343.715787067184,-458.57194296271797,259.5383425819554,159747.3595078522,148708.85218829013,162852.27718622467,3377,2012,1454,3
-1327.3681523430387,-407.81904764390623,256.45943695653517,160066.0023327553,147481.84576040012,155130.094523705,3424,2013,1453,3
-1310.1772416144242,-362.9800917560422,250.51989934582275,160499.93810906168,146442.9612529168,148353.91778735036,3369,2012,1451,3
-1291.933257514038,-324.3642854049557,241.87635180250973,161076.19404829407,145616.78568475702,142492.45436947572,3341,2013,1451,3
-1272.6187604674924,-291.65949725337293,230.89815947377386,161838.7212950283,145021.50500431322,137502.4414362136,3247,2012,1453,3
-1252.4319365432361,-264.1074464930033,218.15276260641645,162847.6527343687,144664.06205155046,133332.60801060963,3127,2015,1450,3
-1231.7587576739797,-240.80264768528664,204.3417131268035,164168.6246333434,144537.39516870293,129929.3081606018,3064,2012,1450,3
-1211.1011436424071,-220.94757529822758,190.21783772083663,165858.04879329487,144619.52102508425,127241.35369017135,2905,2011,1452,3
-1190.9851213641932,-203.94518734707802,176.4997052338504,167951.30684855513,144874.58015207044,125222.40425973262,2925,2008,1454,3
-1171.8652565628813,-189.35939857851994,163.78016719886614,170456.26173898883,145256.0412112498,123830.92659470146,2919,2009,1451,3
-1154.0519498385872,-176.83715957091368,152.459457703446,173352.92402905106,145711.59976304852,123028.35515897337,2915,2012,1451,3
-1137.6874522971796,-166.05543194981655,142.74115456012316,176599.55626820712,146189.38738905886,122776.47545937846,2878,2011,1453,0
-1122.7661323725777,-156.70595274523228,134.68446376521996,180142.15957534904,146645.14416976724,123035.51659614961,2887,2028,1452,0
-1109.176925570125,-148.50368147847993,128.2701526146334,183921.47256068615,147047.90633377887,123764.35844929867,2852,2020,1454,0
-1096.751738283418,-141.20584869375958,123.44371144043636,187875.04424730202,147381.80255807907,124922.38736130494,2801,2022,1455,0
-1085.3161963097398,-134.6329631508576,120.12943800817351,191938.07447212294,147643.9178073485,126471.17384977288,2743,2017,1451,0
-1074.73428103382,-128.68198770377805,118.22748999914435,196046.62490655988,147839.51826857202,128375.07700723108,2720,2022,1452,0
-1064.9307808289334,-123.32355459754956,117.60930421109683,200142.33307548563,147977.0808840263,130600.76311152095,2623,2041,1453,0
-1055.8843284444372,-118.58023039075118,118.11898161245126,204176.4438616126,148064.8441802336,133115.90128266945,2619,2026,1451,0
-1047.5987791427008,-114.49032389521275,119.57628796564184,208112.4808868508,148108.56031344907,135887.60479890814,2558,2035,1439,0
-1040.074383814361,-111.07492090756755,121.77644347165067,211927.07524534757,148110.24854062442,138881.32212450475,2463,2037,1453,0
-1033.2952258138969,-108.32338928617658,124.49006013495325,215608.43871748194,148068.3774804248,142060.72016048923,2376,2044,1451,0
-1027.2296696733415,-106.19384391506942,127.47071410369061,219153.159497137,147979.28178263543,145388.4973164528,2186,2047,1450,0
-1021.8342530769206,-104.61847969609832,130.47178101968754,222562.80817535508,147838.9262271907,148827.40640087184,2084,2035,1452,0
-1017.0575343492164,-103.50999234061868,133.2693322248499,225841.1201769701,147644.34451721463,152341.06649280124,1942,2042,1452,0
-1012.8435696697817,-102.76993081447323,135.68683146109365,228991.5453841569,147394.6548113063,155894.7560840699,1793,2034,1451,0
-1009.1347495254748,-102.29873149450565,137.6117707208743,232015.34392062167,147091.50515337734,159456.0841514217,1565,2057,1451,0
-1005.8743943138885,-102.00582078931909,138.99504398645567,234910.81375473112,146738.69076555333,162995.35347795684,1365,2047,1452,0
-1003.0090006732904,-101.81750383885218,139.8353722663978,237673.61733611132,146341.15375678084,166485.79319636532,1044,2059,1451,0
-1000.4894007457433,-101.67963230015275,140.16041236373752,240297.592819927,145904.0877679042,169903.61932476563,971,2061,1452,0
-998.2716355651335,-101.55537462872945,140.0138960660245,242775.71618375482,145432.65520394838,173227.78401080793,860,2064,1452,0
-996.318543674535,-101.42150108790533,139.449344093239,245101.29206985375,144932.12411684636,176439.65661965424,719,2098,1453,0
-994.6010567776298,-101.26572198858175,138.5274276601751,247269.06969831762,144407.99091119607,179522.90337351276,610,2089,1451,0
-993.0976573089666,-101.08561991554988,137.3140480224446,249275.8177988192,143865.91362859024,182463.46109507812,508,2092,1450,0
-991.7923656668546,-100.88818802083202,135.8769792349235,251120.46787445366,143311.47921957797,185249.47967602313,350,2086,1452,0
-990.672975518436,-100.68893073547324,134.2818636092226,252804.14275138098,142749.8739000003,187871.31311919732,382,2101,1452,0
-989.7299959597404,-100.50986951643502,132.5886033852054,254330.08631670423,142185.5957836068,190321.5106610615,335,2067,1453,0
-988.9557945380528,-100.37647729591829,130.84790735704038,255703.42857326556,141622.302931251,192594.7327561032,234,2098,1457,0
-988.3440101982243,-100.3149161448743,129.09879662302438,256930.85609400406,141062.75416775417,194687.67620864598,170,2109,1456,0
-987.8893449497144,-100.35042978277157,127.36845115235921,258020.2833755225,140508.82966654588,196598.98285580025,109,2102,1471,0
-987.5877088644388,-100.50602870943455,125.67454947565747,258980.58508834522,139961.66606501897,198329.06010652322,75,2106,1457,0
-987.436987272362,-100.80073977396373,124.02915830992714,259821.40909757098,139421.8817969209,199879.8640370304,38,2097,1457,0
-987.4386183720793,-101.24746898893106,122.44371274374753,260553.0247970787,138889.79024184175,201254.66329246288,39,2099,1468,0
-987.5993924955559,-101.85084858993534,120.93492321600522,261186.1466191218,138365.4942005247,202457.7663188079,22,2057,1511,0
-987.9320534637218,-102.6058021126881,119.52946422498717,261731.70358972775,137848.85717414424,203494.24824348645,15,2055,1518,0
-988.453629523443,-103.49740230653978,118.26474982245118,262200.4968743486,137339.386798073,204369.7249599344,0,2039,1525,0
-989.1822008461933,-104.50223718515196,117.18609800578888,262602.71699777874,136836.0578892185,205090.19537553447,4,2049,1553,0
-990.134028070282,-105.59079193225033,116.34271280156393,262947.44687484065,136337.17713609996,205661.93217567948,10,2031,1567,0
-991.3218683391457,-106.73003479183062,115.78353236692695,263242.2726902451,135840.38732670477,206091.38003002325,0,2014,1577,0
-992.7540739115785,-107.88614605097678,115.55297317630858,263493.0166413547,135342.8041936395,206385.04184864496,0,2023,1575,0
-994.4345778069465,-109.02694172735572,115.68799271664903,263703.62907884625,134841.22524004115,206549.34536086567,0,2013,1587,0
-996.3645545534481,-110.12283424365695,116.21780023006902,263876.28662945004,134332.3476854963,206590.45254571244,0,2007,1580,1
-998.5457148569665,-111.14609590695365,117.16553824961322,264011.63102401496,133812.95051684484,206513.9927524133,0,1995,1605,1
-1000.9833727399091,-112.069368726243,118.54998732095102,264108.98272459384,133280.00360617755,206324.8037516082,0,2044,1594,1
-1003.6871424739217,-112.86465830617067,120.3855885727981,264166.44625537825,132730.65398335666,206026.76649026203,0,2050,1616,1
-1006.6688223099574,-113.50340682955205,122.68087382256155,264180.9818859278,132162.08593752538,205622.72033583056,0,2017,1649,1
-1009.9393374065442,-113.95770466675049,125.43667919247574,264148.51926195197,131571.36845609895,205114.443903939,0,2026,1656,1
-1013.5077920796986,-114.2029009594482,128.64505094205796,264064.15623461775,130955.4154446507,204502.70557579753,0,2038,1640,1
-1017.383459153557,-114.22096289566755,132.28920491429997,263922.4650516632,130311.07717837703,203787.34959615112,0,2023,1673,1
-1021.5785354925761,-114.00251355215036,136.34452791623184,263717.8298563954,129635.30722195261,202967.3767732149,0,1951,1721,1
-1026.1099478490082,-113.54654789475269,140.7801291885947,263444.7479705422,128925.33051860977,202041.00056764597,0,1929,1737,1
-1031.0002999313822,-112.85895351591893,145.56045173740927,263098.11676155525,128178.75306653403,201005.6963695906,0,1902,1737,1
-1036.278773597207,-111.95114844642222,150.64642786369353,262673.53140652785,127393.5488765984,199858.28561450198,0,1935,1787,1
-1041.9829565106352,-110.83920977285862,155.99536975348403,262167.5871034908,126567.91230213342,198595.0709862746,0,1938,1794,1
-1048.1603849542219,-109.54385216782556,161.55902785065854,261578.16318653082,125700.08134840046,197212.01866169804,0,1906,1811,1
-1054.8667278677503,-108.09095836898747,167.28066976925334,260904.7416393877,124788.20170071168,195704.93888890516,0,1852,1867,1
-1062.1613518198471,-106.51023399694209,173.0935331850183,260148.83445988508,123830.26165010125,194069.58608958643,0,1777,1940,1
-1070.1042716779396,-104.83141904185722,178.92217779809488,259314.4072320101,122824.19159060142,192301.69346859952,0,1751,2001,1
-1078.7556392892013,-103.0806338265547,184.68617486494048,258408.05935743524,121768.11864187097,190396.99365435677,1,1663,2036,1
-1088.1758965260124,-101.27670620592853,190.3043159921245,257438.8626176141,120660.61161291217,188351.2450106665,4,1548,2114,1
-1098.4250000839968,-99.42683220676714,195.6970955012842,256418.02369114605,119500.79393289794,186160.33785396756,0,1516,2164,1
-1109.560531133155,-97.52456531350609,200.78696138615064,255358.52312946427,118288.29817590759,183820.48358833816,3,1497,2199,1
-1121.6351859024671,-95.55112374018482,205.49791818848368,254274.6900072755,117023.11885356727,181328.38501740986,2,1524,2215,1
-1134.6942911146862,-93.47747332675998,209.75550250062813,253181.7718043873,115705.52753872405,178681.38767595257,3,1431,2264,1
-1148.7746318260847,-91.2657975719445,213.48734818613588,252095.55601602935,114336.12689285954,175877.59620388507,7,1348,2330,1
-1163.9053719433573,-88.87052151278546,216.62447769428377,251031.92103818431,112915.93857620777,172915.88417422483,0,1304,2359,1
-1180.109640377263,-86.23920535134465,219.10225045289823,250006.35727983728,111446.43849990683,169795.90744934446,5,1223,2440,1
-1197.4052770294365,-83.31424122423802,220.85902845493382,249033.55356295846,109929.46307691408,166518.18734534056,2,1173,2465,1
-1215.8048808395145,-80.03615402138377,221.83243915378452,248127.0183333376,108366.9516930784,163084.16057308926,6,1058,2546,1
-1235.3151426787745,-76.34755434840208,221.9556456117776,247298.8499035399,106760.73422383283,159496.2518651708,8,997,2600,1
-1255.9352864270916,-72.19635027360421,221.15561899400254,246559.7639208319,105112.57104296461,155758.0636353254,11,901,2629,1
-1277.6548981020317,-67.53792189849912,219.35372243125047,245919.2660907845,103424.40250179607,151874.61722872456,11,847,2703,1
-1300.4508756911723,-62.33600192926749,216.47000073256805,245385.83923019993,101698.73879771633,147852.51142645004,0,747,2750,1
-1324.2830872361244,-56.562151225950615,212.4324507458231,244967.0791102572,99939.17055040879,143699.92048226442,0,674,2786,1
-1349.0894521129414,-50.194506523032686,207.1883432755423,244669.70836685412,98150.88493758027,139426.59448807064,2,623,2803,1
-1374.7823824149825,-43.2158600966746,200.71445134612762,244499.3260143918,96340.97758876995,135043.94350630633,0,571,2807,1
-1401.2473879724648,-35.611022717805476,193.02611468521408,244459.81103975658,94518.42815076264,130565.04759622861,16,488,2855,1
-1428.3420700100248,-27.365214219081867,184.18332374752848,244552.56756929413,92693.8111158488,126004.68797673147,3,430,2891,1
-1455.8940152994217,-18.46570740707934,174.28958892905086,244775.74133217568,90878.74608496173,121379.5124821412,2,395,2910,1
-1483.6976081470882,-8.906996057188724,163.48285932408848,245123.34789720704,89085.05855170423,116708.18968541094,0,338,2934,1
-1511.5097573264002,1.30243861920663,151.9235436440828,245584.50576451083,87324.03211578213,112011.60035722663,1,319,2963,1
-1539.045265211312,12.133449390724566,139.78339366190306,246143.07722686158,85606.11020853126,107313.10652720781,16,275,2964,1
-1565.9730429918898,23.529889197345426,127.23489571577547,246777.71914234819,83940.92847532929,102638.71487065889,0,235,2968,1
-1591.9129657182439,35.40356615554176,114.44334353821013,247462.18095895115,82337.52307878705,98017.18420721404,19,241,2989,1
-1616.4337998876017,47.632334015485156,101.56468896016966,248165.8402464397,80804.7025683509,93480.10084764904,15,243,2989,1
-1639.0541728394585,60.061658462555584,88.74841239640642,248854.50495655803,79351.5293175917,89061.73992469774,22,233,2978,1
-1659.2476802780743,72.50840007018269,76.14370597714283,249491.1857007948,77987.82257691206,84798.87928343723,16,234,2967,1
-1676.4557553660177,84.76736870774484,63.90837437539939,250036.51493984862,76724.58206663396,80730.746715616,16,324,2926,1
-1690.1108338815295,96.62137068618212,52.2186666729215,250448.84157952052,75574.20043890989,76898.96408002236,21,353,2891,1
-1699.6611772545602,107.85021303181547,41.27411396196559,250684.16333686688,74550.31649453819,73347.56053117578,20,434,2795,1
-1704.5907920902928,118.2340248626341,31.288485352800574,250696.26662217488,73667.09749871727,70123.09394675404,29,559,2703,1
-1704.4395289470488,127.55249561262359,22.465575589772065,250437.5767121918,72938.0023181675,67274.62673650948,0,689,2598,1
-1698.8244058576117,135.58596772994136,14.972820390647746,249860.84513524175,72374.69933015702,64853.513732126885,4,846,2451,1
-1687.4600975047981,142.12863210747133,8.924144894585906,248921.97997843262,71986.71433669685,62912.92348972457,19,947,2374,1
-1670.1802228272945,147.01878505214495,4.370471642241171,247584.26792591618,71781.64179924836,61506.87425720771,17,1120,2251,1
-1646.9533049213167,150.17409883007898,1.2956691713163884,245822.75133787718,71765.42111419173,60689.0446431968,19,1197,2186,1
-1617.8789386320836,151.61775940866838,-0.37915079666941026,243627.54809452535,71942.33141377472,60511.489999437355,13,1284,2108,1
-1583.1595811156587,151.49128259265302,-0.7832121687949098,241006.3567545199,72314.75423858428,61022.95421605724,6,1445,1966,1
-1543.065323881792,150.0487945233871,-0.08056076810405269,237986.12334651942,72882.97634652835,62267.17147752106,19,1629,1774,1
-1497.91265168996,147.6219967733127,1.5477780665203031,234612.9514795113,73645.00963836077,64281.94282373256,20,1689,1727,1
-1448.0600779445633,144.5581081464358,3.9259851279862943,230949.83228326368,74596.16435924033,67098.96231641938,6,1755,1684,1
-1393.9148326918137,141.15836372614868,6.901926656333462,227072.9269573974,75728.34680983727,70743.75901963594,0,1852,1586,2
-1335.9449297832637,137.6384633575941,10.349485962338015,223066.4202280443,77029.30874624141,75235.17193933456,0,1857,1579,2
-1274.6886662921652,134.10754904351117,14.154525336166463,219015.55105066282,78482.10209937977,80584.20886334659,0,1941,1505,2
-1210.7554419828632,130.56396710498692,18.196046682199935,215000.0706138528,80065.0675581707,86792.69421340818,0,2000,1460,2
-1144.8125489766862,126.9170294768828,22.333099828420064,211090.4592243408,81752.97285288265,93852.40116543652,0,2013,1453,2
-1077.5580434697488,123.03412956717716,26.40120090974085,207346.40397208722,83519.53017758504,101745.00676229232,0,2009,1455,2
-1009.6936028395854,118.79249000391016,30.218063814633943,203816.77699299948,85340.24945392366,110442.48076733846,0,2006,1457,2
-941.9042365136888,114.1194734979373,33.59791623254795,200541.0678105127,87194.54053845024,119907.85591488534,0,2010,1451,2
-874.8377544234162,109.02317900049314,36.372001310617556,197551.8013661592,89066.91853167697,130096.78048716157,0,2006,1457,2
-809.0871819726806,103.60889082653262,38.40852850049855,194877.044621488,90947.11967561676,140959.3038405399,0,2006,1455,2
-745.1835886783473,98.06638337900611,39.62613683342626,192542.3068531963,92828.80267141576,152441.62606697358,2,2008,1454,2
-683.5973433792883,92.62725703906925,39.99753717787809,190571.5870689988,94707.22268205244,164488.33398173578,0,2010,1453,2
-624.7461693513528,87.5150410797924,39.54076675230578,188987.4334450921,96577.01521222833,177044.23792785167,0,2009,1454,2
-569.0075281467376,82.90822089909828,38.299883358868684,187809.94496386164,98431.11258980076,190054.91040659716,0,2006,1451,2
-516.7276908722001,78.91763165158139,36.322915773627955,187055.12354311536,100260.99740045833,203466.60224513203,2,2006,1453,2
-468.22477776868647,75.57812891956357,33.648121195524794,186733.6324072352,102057.84967369476,217225.86848922545,0,2006,1453,2
-423.79024330626163,72.85533020509874,30.304391224427313,186850.79471948132,103814.18752531162,231279.1184465062,0,2008,1452,2
-383.6913624214967,70.66146166971491,26.321795302784587,187407.58023573356,105525.69539484728,245572.6952539104,0,2005,1454,2
-348.1719107886338,68.87679490779709,21.7444360718001,188401.7039486694,107192.45478940167,260053.0623137915,0,2006,1453,2
-317.4478491543811,67.3757397545874,16.6413114747337,189828.31368664445,108819.0270206324,274666.52586804825,2,2008,1454,2
-291.70115956666484,66.04911499201157,11.114035069797385,191680.25535573234,110413.75877925946,289358.8121265513,0,2008,1455,2
-271.0769554287227,64.81496388555841,5.29766386686484,193947.86299179035,111987.66275002652,304075.16255549906,0,2008,1452,2
-255.68239425791256,63.62094894134821,-0.6477845075628962,196618.201171979,113552.94492185256,318761.2719646178,5,2005,1456,2
-245.58504616549044,62.44316263958508,-6.550280330366646,199674.03391536657,115121.62946118628,333364.2350062765,0,2004,1453,2
-240.8124088641121,61.28120483376589,-12.238650390685208,203092.9047887147,116704.81356081789,347833.0864165097,1,2007,1452,2
-241.35331786241002,60.14917100447016,-17.554732788761658,206846.46529265933,118312.56335659258,362119.654478234,0,2005,1455,2
-247.15994722955722,59.06588587682908,-22.362015162886323,210900.01027742232,119954.13083681418,376179.3243530786,0,2004,1454,2
-258.14990777379813,58.04624127458318,-26.54825908198317,215212.31323346886,121638.32348109354,389971.2213791467,0,2008,1453,2
-274.20901492452316,57.09185458434589,-30.02397363486062,219735.8783369933,123374.00191568221,403458.4648593639,0,2008,1453,2
-295.1943420475846,56.18191582060301,-32.71977458192304,224417.38046800368,125170.45411802495,416608.29462168505,0,2007,1454,2
-320.9372352530222,55.26663365412446,-34.584763727392016,229198.31991436204,127037.36515914985,429391.65862326213,0,2008,1452,2
-351.24678854531896,54.26325878840709,-35.58634516905332,234016.2671836698,128984.44562728477,441782.7510742379,0,2006,1451,2
-385.91246294371706,53.05484303645772,-35.710579005498076,238806.3617529304,131020.91799065477,453758.45419222745,2,2007,1451,2
-424.7055287244669,51.49302375689731,-34.96291879636772,243502.77248107357,133154.9626802444,465297.5279639669,0,2007,1453,2
-467.3812231863826,49.404791464345394,-33.36967036708405,248040.43609626542,135393.16013045394,476379.99714604235,3,2008,1451,2
-513.6806017114882,46.60064774131244,-30.979206742147,252356.68610479508,137739.989845222,486986.6335429686,5,2006,1451,2
-563.3314114315624,42.882221690977374,-27.860296127874847,256392.3866583813,140197.53438967557,497098.35068756895,11,2006,1454,2
-616.0500643672203,38.04970600251957,-24.096046762792128,260092.98553990145,142765.47900275307,506695.8262298969,9,2008,1450,2
-671.5434026312485,31.907962846242,-19.775931219904503,263409.39928636805,145441.2407426778,515759.1544691226,9,2008,1451,2
-729.5091649362597,24.26914621217339,-14.988791662802656,266298.40656492143,148220.05337032207,524267.32537868316,9,2008,1452,2
-789.6374662308333,14.952243668782577,-9.817249423490662,268722.7816336635,151095.01271827117,532197.8839888126,0,2006,1451,2
-851.6117485635701,3.7818402947836245,-4.334544686676881,270651.2724625177,154057.01539309532,539526.6833211292,5,2006,1451,2
-915.1068731085618,-9.412945969055452,1.3945778176770975,272058.3825592594,157094.59818670302,546227.5367884365,0,2006,1452,2
-979.7859341369506,-24.80065859877922,7.309501778997868,272924.1708029617,160193.86128180177,552272.024274517,0,2005,1455,2
-1045.295597172279,-42.55050842413361,13.349613568783894,273234.3359554275,163338.47815687218,557629.4544982567,0,2008,1452,2
-1111.2605962635457,-62.8330890892602,19.455090036197042,272980.85998915054,166509.7583382202,562267.0317364986,0,2006,1453,2
-1177.2815631879218,-85.8167040590272,25.571889816861095,272163.1935601387,169686.7908545327,566150.4424388233,0,2008,1456,2
-1242.935894350173,-111.65959032071318,31.656194526146134,270789.37586259533,172846.50679350374,569244.443901181,0,2005,1456,2
-1307.7799067584622,-140.4983917976838,37.67776205416802,268876.4928569234,175963.70013301706,571513.0843728053,0,2006,1455,2
-1371.3537924290729,-172.43317111266273,43.62356650219694,266450.3863538108,179011.2856382681,572919.8430559788,0,2010,1454,2
-1433.1865740508824,-207.51273405357563,49.49957547986485,263544.8530390188,181960.68881731862,573427.8638084818,0,2011,1452,3
-1492.7992990226844,-245.72603022970935,55.328137147659284,260200.33337111666,184782.23054364562,573000.3659850946,0,2000,1463,3
-1549.7110571768615,-287.0008118621003,61.14143117730218,256462.0345099347,187445.64550906382,571601.4675060959,0,1977,1482,3
-1603.4470807305715,-331.2039572928909,66.97452720083339,252378.1643288055,189920.6255433453,569197.2757016422,0,1984,1474,3
-1653.5461235450034,-378.13707548551855,72.86212775066356,247998.69391329223,192177.36680776047,565756.9759003076,0,1972,1484,3
-1699.5689074069478,-427.5274874378133,78.83955079763959,243374.2410153923,194187.3679207023,561254.004760683,0,1968,1491,3
-1741.1064614248169,-479.01954113824246,84.94455734090896,238555.13248941934,195924.25035189092,555667.3497083327,0,1972,1481,3
-1777.7895856660487,-532.1720625898765,91.21593313715012,233590.77459814804,197364.29197664233,548982.8411346653,0,1970,1482,3
-1809.3037426486253,-586.4643889217609,97.68806693931064,228528.98569847018,198486.84546715583,541194.3798838613,0,1949,1505,3
-1835.4040055091052,-641.3056555502883,104.38467693994787,223415.4948997097,199274.73301296175,532305.1038284508,0,1960,1497,3
-1855.9250146394606,-696.0435521926319,111.31392780531446,218294.02100619962,199714.61097403124,522328.4117534216,0,1953,1500,3
-1870.7906797731187,-749.9745208153432,118.46384936477703,213206.81256566127,199797.42242180777,511288.7849830782,0,1941,1508,3
-1880.0243848194914,-802.3524416642075,125.79821634595524,208195.4901577115,199518.83613032883,499222.5720452835,0,1938,1515,3
-1883.7556676629506,-852.3934670927575,133.25652014149827,203302.00113339047,198879.44059509726,486178.45438154787,0,1938,1519,3
-1882.224185832386,-899.2809778932021,140.7594728198331,198569.26707690154,197884.66330278348,472217.0780327658,0,1939,1511,3
-1875.7812879418047,-942.1707090112009,148.21640099582277,194041.2473883379,196544.5563980091,457410.3738642712,0,1938,1509,3
-1864.8825126451497,-980.1968482208018,155.53178795199304,189762.0426646741,194873.58841609902,441840.7012362225,0,1931,1519,3
-1850.0663220035249,-1012.484522412916,162.61123709200828,185773.83341115405,192890.52498761012,425599.0754256963,0,1933,1519,3
-1831.9249715142898,-1038.1671955799827,169.36755930372354,182114.51055266112,190618.46216438123,408783.33779426554,0,1936,1519,3
-1811.06962688975,-1056.4097129123743,175.72848979889164,178815.37343609243,188084.99778132825,391497.30482280883,0,1931,1520,3
-1788.086391489591,-1066.4442560742552,181.64353545089566,175898.16421416332,185322.5506681706,373850.37939909066,0,1922,1533,3
-1763.4968134982096,-1067.6180325710782,187.08375563067446,173372.08231528895,182368.9349558162,355957.8441795493,0,1960,1492,3
-1737.7421766263285,-1059.4563125111547,192.03652226198398,171232.37571278185,179267.9648331687,337942.2816765839,0,1944,1505,3
-1711.192481745773,-1041.741775854762,196.50478428515808,169460.72224203977,176069.49166147504,319935.35895599506,0,1955,1497,3
-1684.16770758146,-1014.5807709354134,200.50946041266042,168026.74597440462,172828.40533866122,302078.93160958856,0,1947,1502,3
-1656.9553111701962,-978.4301639505094,204.07947008697676,166890.86454557825,169601.88604979048,284523.0436523715,0,1929,1517,3
-1629.8116883803323,-934.09064421449,207.22728402134265,166009.04880222806,166444.70493354558,267419.1351728013,0,1933,1520,3
-1602.9486706906146,-882.6803242967734,209.92696594831557,165338.42434167655,163404.60786025706,250911.86575715468,0,1947,1503,3
-1576.51397430116,-825.5863511593028,212.10142572270135,164842.17612736506,160519.77113216292,235132.86365636697,0,1954,1502,3
-1550.5712613214707,-764.3928615285674,213.6131742871963,164493.40988536924,157817.94595125492,220195.74087748985,100,1964,1488,3
-1525.0852054202874,-700.8097855260937,214.26044546222596,164277.22030941304,155316.59523000108,206192.87247583017,514,1986,1470,3
-1499.9182168169086,-636.6127295081387,213.78864786303123,164189.8724023798,153024.45860982052,193194.95952336723,1651,1988,1475,3
-1474.8428507463052,-573.5753312869398,211.91949156523526,164235.5633752381,150944.8714166951,181252.02343363877,2701,2001,1464,3
-1449.5710788554577,-513.385200271413,208.38466774808782,164422.71403403496,149079.6086807506,170394.77785298377,3056,2004,1462,3
-1423.8034812752794,-457.5089739569686,202.95710894170477,164761.81094238866,147431.51407271257,160636.18830758033,3085,1992,1463,3
-1397.2953902463894,-406.97877992421445,195.48889371001437,165266.19008802724,146005.68607223962,151972.80802598983,3042,1993,1463,3
-1369.9219693836415,-362.20878535866564,185.9641940739473,165955.9551254757,144809.80865937582,144386.15264939397,3007,1993,1464,3
-1341.7309750660406,-323.01597654109025,174.5703038498028,166862.7474089309,143853.42487201857,137845.15249161172,2839,2013,1452,3
-1312.9783212590826,-288.859415255833,161.7445868186143,168029.3034004244,143145.0470416062,132309.97257572305,2622,2013,1450,3
-1284.1241035772525,-259.1202548043626,148.1253022374465,169499.40820813153,142686.90069311924,127735.90178491338,2452,2018,1451,3
-1255.7619722962204,-233.2664510732851,134.42734456622006,171304.3731496108,142469.54778726987,124075.82783563343,2431,2017,1454,3
