AccX (g),AccY (g),AccZ (g),GyroX (deg/s),GyroY (deg/s),GyroZ (deg/s),Heel ADC0,MidFoot ADC1,Toe ADC2,LABEL
-871.8548690415446,-1062.1392957550659,374.95967457797826,296705.1564974979,132719.14145453848,142404.49924909874,0,1995,1465,4
-911.9134385988699,-925.816659583948,364.62849873308346,294186.84984357806,130980.9647266691,140313.68304910033,2,2011,1451,4
-949.7026923908038,-795.6386949848126,353.9108621301289,291578.5722789803,129409.64205160833,138353.82722729878,93,2012,1452,4
-984.9387026449169,-672.6292246495675,342.7373666287882,288927.5188492267,128010.19862097525,136545.8605777413,225,2013,1451,4
-1017.3361919113007,-557.7537884025478,331.0471963792162,286282.7093676842,126785.09202942127,134908.80457603323,722,2013,1454,4
-1046.611351187647,-451.90958160807077,318.8141865693216,283693.14005576225,125735.2534439523,133459.04086587485,1720,2011,1448,4
-1072.4949315830681,-355.88658931543534,306.06350747752714,281205.22889540944,124860.89806610552,132209.35614754196,2484,2010,1451,4
-1094.75520035152,-270.2794864039922,292.8576549357151,278860.9599874961,124160.8676869103,131167.85502772307,2761,2011,1453,4
-1113.2322221840234,-195.3404648728499,279.2500565011469,276697.92416519363,123629.90466709659,130336.52434482303,2881,2011,1451,4
-1127.8729490801345,-130.8438699483298,265.2387493221197,274751.76767442597,123255.06081923221,129709.86133875493,2935,2011,1455,4
-1138.755301464916,-76.0710165107915,250.77041961031216,273060.5247512468,123013.75975806185,129274.58446089408,3059,2010,1451,4
-1146.0970590844108,-29.962252289074716,235.80836512608906,271666.8990223162,122876.21017851794,129011.63036805498,3010,2009,1451,4
-1150.2408690131551,8.62751927361079,220.41337889050814,270613.0669280939,122812.4178607279,128900.76939579118,2909,2012,1452,4
-1151.6178693340203,40.717386638755244,204.77299936468918,269929.80249071546,122799.09794704885,128925.77275472459,2850,2010,1451,4
-1150.7040897794684,67.12539939525392,189.16217590328972,269627.87750208384,122821.53182497747,129077.36015914353,2750,2009,1453,4
-1147.9738791666307,88.49611972984953,173.8706963762909,269696.3219413737,122871.01554382521,129352.9981619973,2742,2010,1451,4
-1143.8595802676182,105.35515345699586,159.15084859304946,270106.80642250745,122941.75616013222,129754.36489081169,2740,2011,1453,4
-1138.7315186798905,118.15380850115079,145.20562127076428,270821.15490569687,123029.17448001569,130283.87479520847,2741,2009,1454,4
-1132.8949487115174,127.30463364470073,132.19585147303712,271798.73550525424,123129.08755576289,130941.51539339521,2722,2010,1451,4
-1126.5925917219522,133.20669285020833,120.24549705563209,273000.935308928,123237.17337488239,131723.19229638352,2827,2011,1451,4
-1120.0084574613168,136.25234455440503,109.44380762672237,274392.1586296809,123348.98598740292,132621.18690258922,2796,2009,1451,4
-1113.27399377384,136.81987095272365,99.84930718171243,275939.3062708986,123460.68907010026,133625.9586998806,2776,2013,1451,4
-1106.4778767179102,135.26389589079554,91.49540822041095,277611.31757376104,123569.97842008274,134727.82680663647,2748,2014,1452,4
-1099.6801883665341,131.90987036849037,84.39303894998487,279379.1614359556,123676.46476946074,135917.74704367816,2711,2010,1451,4
-1092.9294623886874,127.05184075606385,78.52817431637942,281216.2632763765,123781.33719287554,137187.3957187172,2693,2013,1452,4
-1086.2756212776358,120.95194425098738,73.85811096659889,283099.0595016148,123886.70621147753,138528.91537138983,2701,2021,1451,4
-1079.7730234829917,113.84263963591476,70.31180433578116,285007.4290733917,123994.99681110705,139934.49559397466,2668,2022,1452,4
-1073.4758585071133,105.9315232379017,67.79447778067951,286924.97389695875,124108.42847228661,141395.97526774436,2637,2024,1455,4
-1067.43202362411,97.405721169331,66.1926763047579,288838.97985406383,124228.58971377791,142904.62039942553,2630,2025,1451,4
-1061.6789787641683,88.43324253595938,65.37836557208654,290739.82259053545,124356.20254674485,144451.20393941266,2550,2022,1455,4
-1056.2416768466946,79.16169516871912,65.21341203636716,292619.9192561148,124491.08872039706,146026.40375510426,2487,2022,1451,4
-1051.1327224086738,69.71751422661434,65.55441758045454,294472.6678379257,124632.2815952671,147621.2496655974,2363,2038,1451,4
-1046.3554225355108,60.208804783508135,66.25801806082956,296291.7804054975,124778.25246433241,149227.38440949007,2252,2053,1451,4
-1041.908682851905,50.73122212950757,67.18801464340996,298071.1406332194,124927.20559946116,150837.1966662447,2164,2045,1450,4
-1037.791230512119,41.37291672343615,68.2230157496387,299805.03656849347,125077.27438770262,152443.85600709164,2004,2060,1450,4
-1034.0033432877617,32.21529641843307,69.26172629332322,301488.4063160676,125226.48796568296,154041.2073307968,1880,2072,1453,4
-1030.545830480277,23.330082330534843,70.22517333756444,303116.90761440655,125372.59521122016,155623.6412830548,1709,2066,1451,4
-1027.417631220793,14.775974686381497,71.05641173854396,304686.9342328545,125512.90022031518,157186.06898450648,1536,2088,1451,4
-1024.6141588350195,6.597497409422587,71.71811495764072,306195.6023543788,125644.21046921621,158723.9333935182,1460,2076,1452,4
-1022.1271413711606,-1.173468897194719,72.1882241460318,307640.62543894834,125762.96569019878,160233.1742796098,1228,2098,1456,4
-1019.9452631464952,-8.514345452038429,72.45516334986831,309020.1498880907,125865.53011167469,161710.18740065713,1111,2056,1451,4
-1018.0548191601823,-15.409028484911131,72.51500902751893,310332.6277236481,125948.49537453073,163151.77713806197,958,2086,1452,4
-1016.4400232666768,-21.84746987448706,72.37057649942315,311576.7088861864,126008.85688727925,164555.10030127296,864,2091,1450,4
-1015.0831336609266,-27.827066296165786,72.03067052170515,312751.14716393535,126044.06806627694,165917.66807310263,734,2095,1453,4
-1013.9646935656871,-33.35426578513962,71.50814733514395,313854.7212429905,126052.02979434544,167237.37812257613,648,2141,1455,4
-1013.063917670203,-38.44561563205671,70.81634472746867,314886.1906060367,126031.06345073902,168512.51017015066,574,2139,1453,4
-1012.3592150590933,-43.12786188380224,69.96572519631566,315844.33597213466,125979.90168779115,169741.6939035339,444,2150,1458,4
-1011.8292680364657,-47.43668188548578,68.96390252508017,316728.1646624409,125897.71461128349,170923.87096889346,367,2154,1455,4
-1011.4549926516291,-51.41393717136568,67.81965195998099,317537.29727621627,125784.18241003952,172058.26069282703,325,2156,1456,4
-1011.2216222018486,-55.10382759099487,66.54805041552503,318272.3303654086,125639.58068109912,173144.29647104078,248,2204,1479,4
-1011.1196725501724,-58.54859409755724,65.1737722793091,318934.9746340178,125464.79279042865,174181.50865950694,181,2189,1464,4
-1011.1443906964736,-61.78495266813813,63.731653666490615,319527.99080965464,125261.20631563684,175169.4075310513,150,2221,1638,4
-1011.2941706380187,-64.84272330199254,62.2649883366754,320054.9923885712,125030.56200290732,176107.40878156887,131,2213,1645,4
-1011.5683393287791,-67.7457400908285,60.82211026396246,320520.13666602777,124774.85755800716,176994.82651895093,65,2246,1635,4
-1011.9645944536422,-70.51367036323697,59.45200364612591,320927.7661112938,124496.35135897432,177830.9380910447,37,2270,1636,4
-1012.477125264553,-73.1634256397388,58.20059050547946,321282.1234299545,124197.64084197428,178615.0388949015,61,2241,1635,4
-1013.096327514999,-75.71011987248494,57.108341768436155,321587.20873375563,123881.70991030136,179346.45521329058,37,2250,1651,4
-1013.8094711736642,-78.16826738845576,56.20794382925064,321846.7352723053,123551.84713073846,180024.58061200523,8,2264,1648,4
-1014.6010912637624,-80.55304313450914,55.52158378281705,322064.12200212793,123211.46874682336,180648.93722984835,2,2277,1670,4
-1015.4527564409964,-82.88097277338782,55.058823894828464,322242.5210471811,122863.93412674639,181219.2451897542,0,2321,1666,4
-1016.3425399446749,-85.16983510821272,54.81609161295697,322384.90481852315,122512.40821039448,181735.52244902423,0,2351,1655,4
-1017.244799358822,-87.43784024305879,54.77817135954659,322494.1755342936,122159.83208702247,182198.17485529813,0,2311,1679,4
-1018.1310062095707,-89.70234750709535,54.9215782248409,322573.22786786925,121809.00571436265,182608.04011496282,0,2315,1688,4
-1018.9713764422828,-91.97834696453195,55.21958887307191,322624.9549790295,121462.68375646354,182966.41018836698,0,2312,1711,4
-1019.7361296248595,-94.27718290043217,55.647354441895914,322652.21370699466,121123.59396703806,183275.02794056793,0,2322,1716,4
-1020.3963295725434,-96.6062525143019,56.184905080950806,322657.7239443195,120794.33674834121,183536.03833275448,0,2298,1744,4
-1020.9252631872479,-98.969449838295,56.81767628362191,322643.8854051443,120477.17726698722,183751.89729374906,0,2338,1735,4
-1021.3003233996715,-101.36752323031293,57.535779484956684,322612.5936777198,120173.8537867165,183925.2466977367,0,2318,1736,4
-1021.5046922031614,-103.7983857317643,58.33354628513941,322565.1523262264,119885.53202606419,184058.7530479344,0,2343,1765,4
-1021.528453594754,-106.25757890718589,59.2098571859853,322502.25113947893,119612.88924250055,184154.91166038538,0,2342,1763,4
-1021.3689792579954,-108.73881023877583,60.168452776458444,322423.93454397743,119356.22351002097,184215.86571923882,0,2369,1767,4
-1021.0310977907586,-111.23511385595472,61.217397555966556,322329.5501838225,119115.5125553526,184243.2856472865,0,2345,1795,4
-1020.5277040046551,-113.74121148093394,62.3668254717681,322217.7233546214,118890.39702144907,184238.2999115586,0,2345,1779,4
-1019.8799236292649,-116.25633852347585,63.62366710844146,322086.483944622,118680.04417389809,184201.46772984328,0,2382,1791,4
-1019.1152107682211,-118.78497916271732,64.98446807620265,321933.6560609612,118482.86989198258,184132.78966409608,0,2384,1787,4
-1018.2639092811175,-121.33391740258857,66.43114411515509,321757.3870352655,118296.32902653531,184031.71312680974,0,2394,1788,4
-1017.3568027941825,-123.9075178518485,67.93378403644135,321556.55660990014,118117.1190909675,183897.08645251623,0,2405,1787,4
-1016.4249322912327,-126.50372533418098,69.45933937144295,321330.9125021714,117941.7870319795,183727.10689366833,0,2363,1825,4
-1015.5008714676981,-129.1119207494101,70.98026220747406,321080.9215808796,117767.29788518415,183519.3658492256,0,2347,1834,4
-1014.6201544861065,-131.71346387339815,72.47862597803635,320807.4254969333,117591.2256201782,183271.01087797715,0,2371,1840,4
-1013.8220591473291,-134.284831601407,73.94679227022937,320511.27266583196,117411.61766337218,182978.92567417765,0,2358,1864,4
-1013.1496306832964,-136.80133379676644,75.38702375920265,320193.111327516,117226.75875496314,182639.81547382614,0,2306,1876,4
-1012.6492724399685,-139.2392560169108,76.81016543368018,319853.3594282284,117034.96644929599,182250.17370296622,0,2295,1881,4
-1012.3704163821059,-141.5763270768209,78.23307247195615,319492.2274759611,116834.43621216642,181806.18889274966,0,2239,1934,4
-1012.3657320740077,-143.79141343401153,79.67563951333685,319109.7430038387,116623.16156659933,181303.67415149376,0,2241,1928,4
-1012.691743039158,-145.86414134212941,81.15820450102727,318705.7906638697,116398.94256084508,180738.05351292598,0,2176,1979,4
-1013.4091697819247,-147.77497344831144,82.69933650049649,318280.1756653922,116159.43824683763,180104.38077013727,0,2186,1983,4
-1014.582639255394,-149.50602532514938,84.31389627483532,317832.7398677205,115902.22688635509,179397.3620534009,0,2139,1981,4
-1016.2800423226571,-151.04261264729328,86.01111148709091,317363.55702313845,115624.86666872901,178611.37569858544,0,2137,2021,4
-1018.5719270588621,-152.37468927270675,87.79293130022438,316873.18395609315,115324.95626085417,177740.51135535087,0,2101,1935,4
-1021.530806317858,-153.49700113025327,89.6538232766398,316362.9545028696,115000.20456849254,176778.62345721744,0,1981,1895,4
-1025.229962904845,-154.4079580489977,91.58233347870916,315835.3130488317,114648.52401815253,175719.36120922232,0,1934,1963,4
-1029.7418975994735,-155.10818866699924,93.56316576167495,315294.1067765377,114268.13403790967,174556.19374298182,0,1871,2007,4
-1035.1369399938635,-155.5992608607448,95.57880521073085,314744.7477265081,113857.62601477206,173282.44796875105,0,1865,2027,4
-1041.4820335395593,-155.88244721116828,97.61078253649477,314194.25200892345,113415.9627124442,171891.33310196784,0,1813,2046,4
-1048.839465670953,-155.9576022395492,99.64064998203281,313651.2114707809,112942.45459475386,170375.98559477116,0,1822,2046,4
-1057.2657831622828,-155.82211109880615,101.6507930794451,313125.6782859033,112436.76453973942,168729.56285766888,10,1713,2092,4
-1066.8112007897037,-155.46961534152544,103.62540341772896,312628.90909838054,111898.93828023973,166945.35257154302,0,1704,2122,4
-1077.5191030154513,-154.88883775846912,105.55126801877901,312173.0380421492,111329.44193776387,165016.9133416797,0,1680,2111,4
-1089.4249586224385,-154.06312359498284,107.41786990257974,311770.7638676083,110729.1968094865,162938.27201300368,0,1699,2108,4
-1102.5551746179524,-152.9707139973777,109.21670894933825,311435.04440603266,110099.59560140097,160704.15417152544,0,1615,2179,4
-1116.926912760304,-151.585527641916,110.93951069944751,311178.78307354474,109442.45610503608,158310.19473397985,0,1552,2202,4
-1132.547390459675,-149.87820076312707,112.57541881550263,311014.52341501124,108759.88320134836,155753.07584865767,0,1465,2278,4
-1149.4104936960543,-147.8170295973108,114.10856556720697,310954.24052638776,108054.13413536453,153030.64550619284,0,1394,2298,4
-1167.4924679055557,-145.36923643881426,115.51766957281883,311009.2864255469,107327.61593386922,150142.07893942852,0,1400,2306,4
-1186.7500622266073,-142.5035164685305,116.77828005865217,311190.3919226306,106583.01475066441,147088.06919928113,0,1334,2332,4
-1207.1206102850342,-139.19317595889117,117.86627966692758,311507.58690379834,105823.47252381785,143871.0496332326,0,1204,2372,4
-1228.520977675664,-135.4180743154343,118.76034804434894,311969.95641409524,105052.70184587652,140495.29298796036,0,1223,2382,4
-1250.844773856601,-131.1654959511454,119.4428288433863,312585.2777549644,104274.95822487406,136966.7280039522,3,1139,2411,4
-1273.959345948849,-126.43120124084334,119.89963381716612,313359.7006445441,103494.91185043313,133292.72424916268,0,1053,2441,4
-1297.7037958036985,-121.22068594147404,120.1190940885194,314297.5296949361,102717.47936171111,129482.04731255813,1,1009,2468,4
-1321.888437198343,-115.55026161745762,120.08956092315431,315401.02851191856,101947.62071273215,125544.84643330977,0,946,2491,4
-1346.2944558805964,-109.44825030060971,119.79658878107368,316670.215505586,101190.18959837816,121492.69539438847,0,880,2519,4
-1370.6724610039303,-102.95678509593566,119.2206271724582,318102.728983978,100449.93362720415,117338.70906808051,1,847,2515,4
-1394.7403765990407,-96.13417031178099,118.33537192062984,319693.80626744544,99731.60780516794,113097.56820269457,0,831,2516,4
-1418.182199338893,-89.05705553070202,117.10751650238866,321436.29201407376,99040.15577475693,108785.53424688216,0,819,2545,4
-1440.6487005914928,-81.82156749444621,115.4992612522896,323320.5949919074,98380.97115897108,104420.60942474207,0,823,2559,4
-1461.7600332734594,-74.54274066926294,113.4740023051776,325334.5728264109,97760.23840519856,100022.77340500292,0,817,2564,4
-1481.1126340464893,-67.35065963861307,111.00622520538639,327463.23928925116,97185.31699610848,95614.17179483041,0,861,2547,4
-1498.2926434612218,-60.38237875424828,108.09578399945592,329688.16513588035,96665.06222269032,91219.21516912643,3,872,2549,4
-1512.8900386054397,-53.77283179374517,104.78038477753361,331986.60481672996,96209.84945424247,86864.75750212996,2,910,2523,4
-1524.507541068809,-47.64906752796549,101.13723587457234,334330.5053309809,95830.98279189624,82580.4518095813,0,910,2482,4
-1532.7663416541027,-42.1294429486738,97.27194208232183,336685.6289565989,95539.49530440361,78399.13403323389,6,1014,2420,4
-1537.3122204249146,-37.328162037966415,93.30224494428417,339011.1787850792,95345.05358685079,74357.2257494317,5,1072,2334,4
-1537.8274841402372,-33.363982926675135,89.34439309867105,341260.60329506407,95255.80034468014,70495.17349898203,5,1178,2230,4
-1534.053481254531,-30.368141490186222,85.50359152114169,343383.897624849,95279.20135883726,66857.7795888439,2,1330,2122,4
-1525.8152859081315,-28.48372718822291,81.86837191613397,345330.67636819894,95423.1640059366,63494.32427097059,17,1373,2055,4
-1513.033971257986,-27.848477450237247,78.50888909977186,347053.97278462915,95696.58710918236,60458.08666225064,13,1488,1956,4
-1495.7230141962245,-28.56132325895016,75.47830796314871,348515.46428669005,96109.05173544484,57804.86078063291,16,1593,1853,4
-1473.9759842224532,-30.646997898514634,72.81604758860861,349690.79524768563,96669.90996408607,55590.98981483888,1,1682,1773,4
-1447.9499461251605,-34.02916039994115,70.55158559504615,350573.20245185576,97387.00305511903,53871.36445456243,11,1742,1724,4
-1417.8438486761113,-38.51003654442648,68.70971081591578,351175.5436015807,98265.1313187583,52697.16679268015,11,1785,1678,4
-1383.8778120071172,-43.76031764943694,67.31721743334312,351530.7975854311,99304.76377400619,52113.883122933345,12,1837,1617,4
-1346.2810781170185,-49.333136198814884,66.40719236290948,351690.0143573138,100501.42994909831,52160.391365871,12,1870,1590,4
-1305.287534434217,-54.705842112849325,66.01843979967732,351717.4231807108,101845.56092835199,52868.98368703804,12,1902,1576,4
-1261.136673379307,-59.33296344895755,66.19029026019922,351684.28168464976,103322.38234537932,54265.82162153599,1,1892,1566,4
-1214.0807008075958,-62.70124729245398,66.95124681568612,351662.23134964507,104912.07034742196,56371.62464374037,7,1920,1535,4
-1164.3975806227813,-64.3922868967828,68.30172905543972,351715.65405037615,106590.71041907126,59202.5080412292,2,2000,1466,4
-1112.4063321620586,-64.13706796715378,70.19879569163092,351894.8523590609,108332.16373477182,62770.56283248766,0,2011,1456,4
-1058.4768615921878,-61.83692119236082,72.55233900592249,352232.4107587256,110111.13903924526,67083.7234612477,0,2011,1453,4
-1003.0311386701344,-57.5530248348101,75.23547838209403,352742.52590125793,111907.65501117364,72144.97740071118,0,2011,1452,4
-946.5404991288852,-51.48265970321,78.10518167245594,353422.3283770464,113711.13207978178,77951.28848041127,0,2012,1452,4
-889.520040195439,-43.926677332472686,81.02997994484778,354255.0885528131,115521.75460949281,84492.71810129425,0,2008,1458,4
-832.5173180181013,-35.24430041900448,83.92086738876523,355215.0816266976,117348.69859646512,91752.12556627834,0,2010,1454,4
-776.0987855370785,-25.80578532992495,86.75130093052844,356272.38037324353,119206.50417834075,99705.29345645946,0,2010,1451,4
-720.832931235972,-15.95377214052858,89.55175100829,357396.1261431863,121110.73353814863,108321.35728870862,0,2010,1454,4
-667.264630906469,-5.972068941487745,92.38131321648991,358556.61451173946,123073.52935385381,117563.66053070276,0,2009,1453,4
-615.8904063553256,3.9315996543286165,95.29554806512535,359726.56113195774,125100.44632874921,127390.61558674605,0,2007,1456,4
-567.1472083927773,13.618362716801634,98.32760855266415,360881.74329104985,127190.01611262745,137756.57480562586,0,2008,1454,4
-521.4129589142489,22.992092947529628,101.48431909567478,362001.4816504613,129335.7675525157,148613.25333045042,0,2005,1455,4
-479.013550731475,31.97328496221992,104.75120158645423,363068.8956573211,131528.9446078045,159910.977993254,0,2004,1455,4
-440.23230095013383,40.486372839031354,108.10240358908166,364070.67582815344,133760.62166411732,171599.0421814256,0,2006,1453,4
-405.3173156901671,48.459019321594596,111.51288001004954,364996.60165386304,136023.1305020672,183625.73040433624,0,2006,1455,4
-374.4851785124394,55.8254408337209,114.9684280275339,365839.2168256024,138310.70996701941,195938.18742761755,0,2008,1455,4
-347.92090901284513,62.52897737388701,118.47000513806168,366593.8031941342,140619.1786736663,208482.25810424628,0,2007,1454,4
-325.7750555385144,68.52378723115663,122.03254709845415,367258.4835702355,142945.02773213395,221202.90431023095,0,2009,1453,4
-308.1611358405787,73.77658881951027,125.68018669286161,367834.1863235801,145284.53002614417,234044.7885966575,0,2008,1452,4
-295.15455839270334,78.2682852272708,129.43926292552229,368324.29298247973,147633.21339584474,246952.67922976977,0,2010,1452,4
-286.79162127522704,81.99538472481267,133.3299194617058,368733.98955768696,149985.75222331312,259872.2537512699,0,2009,1453,4
-283.06928211104656,84.97067228626082,137.35958087096557,369069.58588510216,152336.13076760605,272750.9553200379,0,2010,1453,4
-283.9468292304158,87.2219547115233,141.52384543300005,369338.0354789484,154678.05124570866,285538.5439277305,0,2009,1453,4
-289.34824967292735,88.78880980762425,145.81547557668154,369546.62179619604,157005.57619027904,298187.8859557415,0,2010,1452,4
-299.1638700435034,89.71851211099083,150.23500643910504,369702.731247319,159313.61232014958,310655.56143558904,0,2010,1453,4
-313.2522100578866,90.06130114552576,154.7971896095328,369813.6896497069,161597.9244143024,322901.81571895647,0,2010,1452,4
-331.4434911334956,89.86451403872697,159.53317754181282,369886.60995478666,163854.8585853517,334890.437896557,0,2008,1453,4
-353.5433037930861,89.16712529940193,164.4893689709511,369928.19673550286,166080.98742337705,346588.53842860676,0,2010,1450,4
-379.3348098192682,87.99626391337023,169.7218244067151,369944.3948563994,168272.76799478932,357966.0496637459,0,2010,1455,4
-408.5802300974466,86.36516428660461,175.2869920572602,369939.8244598465,170426.3247429251,368995.425840284,0,2010,1454,4
-441.0218384701492,84.27206349851522,181.23312422942232,369917.19411498716,172537.38947930952,379651.4283416917,0,2005,1453,4
-476.38379761685843,81.70045715755256,187.5953718075476,369876.8373928468,174601.44709510746,389910.8680951163,0,2006,1455,4
-514.3771812095889,78.62100873175571,194.39351617223153,369816.3085997389,176614.12442556128,399752.73437771475,0,2004,1456,4
-554.7059650351553,74.99488809946615,201.6308318857855,369730.0713904044,178571.56478964025,409158.41068886174,0,2005,1455,4
-597.0718260244723,70.77847830956891,209.29406264171948,369609.39213418314,180470.55953467722,418111.61318253493,0,2005,1455,4
-641.1790437219335,65.92923077900838,217.35460349108854,369442.4139159711,182308.5224480388,426598.39159706567,0,2005,1456,4
-686.73776027353,60.410870346526615,225.76999510393773,369214.32561515865,184083.3791743178,434607.07129262167,0,2004,1455,4
-733.464390126,54.195736433502596,234.48518715025614,368907.64336384,185793.42164345572,442127.934871707,0,2005,1455,4
-781.0820260556922,47.26349136304369,243.4340081560806,368502.6677698859,187437.24205698364,449152.9729846046,0,2005,1455,4
-829.3211030378862,39.597005143459924,252.5406392708871,367978.0488981023,189013.7125737786,455675.64737615385,0,2004,1454,4
-877.9203658110983,31.175876684153355,261.7213737098852,367311.4483754806,190521.92454334395,461690.50481634814,0,2005,1455,4
-926.6299916823158,21.96781000512593,270.88786940007674,366480.40549605945,191961.10488474992,467192.859361998,0,2004,1456,4
-975.2142601099878,11.920956606316484,279.9516045017631,365463.30308434454,193330.48897066782,472178.47812499,0,2004,1455,4
-1023.4512519129738,0.9601100218633307,288.8292061790793,364240.353484375,194629.07545394707,476643.1277504795,0,2005,1454,4
-1071.131529636875,-11.014079332392841,297.44841664979367,362794.6919198327,195855.24587672754,480582.14138817,0,2004,1455,4
-1118.0560475644884,-24.123682842706963,305.75203625722344,361113.4412610044,197006.28516872347,483990.0314748696,0,2004,1457,4
-1164.0329749960008,-38.50885411795239,313.6974622779836,359188.6307821268,198077.81845334676,486860.11493707786,0,2005,1458,4
-1208.8749751612029,-54.31979823509441,321.2520633525237,357018.05684659973,199063.19784361037,489184.24314369477,0,2005,1455,4
-1252.396418874862,-71.70769021576037,328.3866080773789,354606.0065699349,199953.0222588152,490952.59423898434,0,2004,1457,4
-1294.4104528744078,-90.81698819864273,335.0699014873864,351963.6513269511,200735.04335326632,492153.4984844043,0,2008,1453,4
-1334.727823761496,-111.77945782152642,341.2662962990329,349109.0999858093,201394.49962244794,492773.4137829952,0,2007,1453,4
-1373.1566409045465,-134.70938217710986,346.9356306923767,346067.2748714096,201914.63620502426,492797.0524829115,0,2006,1454,3
-1409.502248685508,-159.6988318663137,352.0348371929867,342869.5496560116,202277.275061347,492207.6241663909,0,2005,1455,3
-1443.5685611706256,-186.8114316274414,356.5208294627003,339552.95856939524,202463.50466782547,490987.24335049477,0,2004,1456,3
-1475.1597628296283,-216.07459110004757,360.35361831178443,336159.2277993763,202454.38664407984,489117.44565018226,0,2003,1455,3
-1504.0819887261898,-247.47149889077565,363.4989295217533,332733.67586088274,202231.639685306,486579.7426024218,0,2008,1454,3
-1530.1473955097288,-280.9337852695089,365.9308538720028,329323.65008548525,201778.46434738132,483356.2537202741,0,2010,1454,3
-1553.1797539560534,-316.3355540265102,367.63429545503453,325976.88886327535,201080.38814341507,479430.3946216572,0,2010,1455,3
-1573.0207459011006,-353.49078010700816,368.6064872617275,322740.19043509057,200125.89785104612,474787.52826522285,0,2010,1452,3
-1589.5389170370413,-392.1553720700082,368.857791305974,319658.10056480917,198906.8667483314,469415.5640202189,0,2010,1454,3
-1602.638654434254,-432.0310473220406,368.4118239578223,316771.8090817888,197418.7866821263,463305.58445820457,0,2009,1457,3
-1612.2652667071168,-472.76871581542474,367.30364583822757,314118.54104840563,195660.70216953594,456452.46212003403,0,1988,1471,3
-1618.4074987231288,-513.9722925327068,365.57479315888145,311731.139500286,193634.86085235374,448855.3683126009,0,1986,1470,3
-1621.0985632914308,-555.2008175926628,363.267312285304,309637.7474764841,191346.35208286403,440518.3365916241,0,1990,1471,3
-1620.4138848344207,-595.9657957818234,360.42107322750513,307861.5896348658,188802.924838656,431450.98035523633,0,1988,1471,3
-1616.4657222059716,-635.7250015641256,357.07511642048723,306420.5726718773,186014.92323759032,421669.26359040505,0,1973,1479,3
-1609.3986846784953,-673.8759339648948,353.269222093644,305326.678516299,182995.32770511074,411196.475889224,0,1973,1485,3
-1599.391606360271,-709.7550357211755,349.0408340787499,304585.1373560368,179759.85503398036,400064.38175772707,0,1965,1488,3
-1586.668077271804,-742.6485088615503,344.4168613067605,304193.18192163215,176327.02130222367,388314.15557042795,0,1970,1486,3
-1571.5084561725575,-771.8109317993793,339.40711047922855,304138.70886577916,172718.381245337,375997.0776621471,0,1953,1499,3
-1554.2498348647746,-796.4894860478337,334.00701582401183,304399.4992711149,168959.27813581648,363174.7661757398,0,1949,1502,3
-1535.271323548455,-815.9591037722242,328.209047722745,304943.2978140989,165080.07624559966,349918.5367877886,0,1947,1504,3
-1514.9759524867106,-829.5593626620697,322.0183419678378,305728.723259586,161117.25325293612,336308.6360327325,0,1940,1519,3
-1493.7739301728157,-836.7178973771951,315.47052809319473,306706.922194454,157113.071534071,322433.72994097456,0,1955,1497,3
-1472.0632375732077,-836.9639204664139,308.6414320972912,307823.59068327706,153113.0842420721,308389.75324721885,0,1956,1496,3
-1450.2117700086726,-829.9433799601693,301.6372522251813,309020.6248689756,149162.58323909264,294278.33641345333,0,1963,1489,3
-1428.5478244541152,-815.4428678439764,294.57208712179437,310237.4166456629,145303.27808119397,280205.21692930633,0,1964,1491,3
-1407.357676383578,-793.4208399151382,287.5451793445637,311412.3738938928,141570.58630957876,266278.048222844,0,1964,1488,3
-1386.8874852355484,-764.0349306020452,280.6211455289605,312484.529604789,137992.42276991502,252604.1219137015,0,1957,1494,3
-1367.3470304712018,-727.6569212810122,273.81439231850106,313395.06014871655,134590.08049875073,239288.6023703101,0,1978,1484,3
-1348.911315982884,-684.8731579666027,267.0839711825051,314088.9713237009,131380.30238443663,226432.6690700911,0,1978,1480,3
-1331.7175612430149,-636.466041346053,260.34680830458365,314517.16602948867,128377.47213989413,214130.75890411527,0,1979,1480,3
-1315.8590949665318,-583.3770010412873,253.50658587002192,314638.7835412507,125595.38405273124,202466.78136912434,0,1978,1479,3
-1301.380701033503,-526.6681405228803,246.4814213512264,314423.00491552387,123048.05786088445,191511.04249894666,0,1978,1478,3
-1288.27582557577,-467.4965055945893,239.2157300488554,313849.62788017717,120749.10535875827,181319.3037876327,0,1980,1479,3
-1276.481700043657,-407.0976190562107,231.6763407067787,312908.7232348732,118709.91003885207,171933.09385749162,0,1990,1468,3
-1265.8726633139272,-346.7749429857938,223.84238156458017,311600.0692270114,116937.90720364937,163380.44580386003,91,1993,1464,3
-1256.255338367119,-287.88483071244593,215.69879814952358,309932.7369745923,115436.11822718533,155676.83803482796,446,2012,1451,3
-1247.3674714890824,-231.79967552909923,207.2376714488635,307924.89985526266,114203.951493684,148825.88597776747,1200,2010,1452,3
-1238.8846390179806,-179.84820648284403,198.46302880880708,305603.9091976253,113238.41978395746,142819.78782295404,2171,2008,1458,3
-1230.4464170164224,-133.21450376976844,189.38513215166498,303006.79592765705,112534.38271508552,137639.52230403488,2574,2011,1450,3
-1221.7051194927394,-92.77059956913095,179.99220800341695,300181.42981700646,112082.77396489262,133254.3487293701,2737,2012,1451,3
-1212.375128134774,-58.90031565925417,170.21774667717506,297188.8818587159,111867.4262951997,129620.86174144527,2819,2012,1452,3
-1202.2645688074613,-31.42349125964822,159.95304382562918,294107.6111348102,111862.54025320028,126682.78236687409,2796,2011,1453,3
-1191.2975990660502,-9.691680938472071,149.12896068017696,291035.7031745275,112033.71234865215,124373.25878565463,2788,2012,1451,3
-1179.5308528912794,7.168478614538247,137.8164202978433,288083.9349106265,112343.84827952272,122620.5913393202,2817,2011,1452,3
-1167.1496924691994,20.010859217604555,126.26452971188044,285360.43900853436,112759.91820520071,121355.245992857,2747,2011,1451,3
-1154.431055327055,29.551247817115268,114.84075182374782,282954.8718438171,113255.0803610588,120515.40424749712,2703,2009,1452,3
-1141.6782428277893,36.35727643981689,103.912800449568,280927.63387046923,113806.33802039662,120050.33891745667,2560,2010,1451,3
-1129.1605038739,40.87405652315826,93.75796541967858,279307.384104368,114392.01347448066,119921.26854328129,2516,2010,1451,0
-1117.0859775483395,43.44788184695146,84.5479932557988,278097.16616989,114991.97335958331,120099.24696868529,2481,2011,1453,0
-1105.6029999735301,44.34638941153451,76.38376187575297,277284.5188882221,115590.02917878616,120560.933244905,2576,2010,1451,0
-1094.8111355912683,43.782264177375225,69.3312331123784,276849.4561235723,116175.85362746341,121284.57373011879,2557,2013,1451,0
-1084.770105624792,41.939611169687495,63.43446658813413,276768.16044560866,116744.61488647753,122248.05730504621,2580,2014,1454,0
-1075.5040076754465,38.99720337982955,58.7103917813692,277014.55247264873,117294.77507333369,123428.84382597257,2651,2010,1452,0
-1067.0040797311872,35.140330298479995,55.14068473437426,277561.35457103327,117825.8695046573,124804.65162820638,2646,2016,1451,0
-1059.2341532178032,30.558503267525204,52.670332012807215,278380.6203923523,118337.59940857651,126354.19799116034,2638,2025,1455,0
-1052.1406706191983,25.43509624154588,51.21256469806901,279443.8932158873,118830.0993494585,128057.73580286335,2661,2028,1451,0
-1045.6643826664779,19.936874742735306,50.654658066396074,280722.3359588457,119304.44605882298,129897.21924535335,2680,2026,1451,0
-1039.7500136226731,14.207725751638172,50.86248632545391,282187.0441644137,119762.68142666007,131856.0256552268,2667,2026,1455,0
-1034.3533172742118,8.365469106390776,51.68641305610142,283809.59147268726,120207.32296658854,133918.44897515667,2662,2030,1453,0
-1029.444316461599,2.5010104003664,52.969643223321306,285562.5337637868,120640.82733114886,136069.2438967299,2642,2043,1453,0
-1025.0039908664046,-3.317994237111119,54.55841193192187,287419.6357365751,121065.25352652169,138293.34478149968,2609,2064,1451,0
-1021.0161601900651,-9.039717647323856,56.31238238557837,289356.03285322303,121481.94633384,140575.8503030655,2538,2061,1451,0
-1017.4620378273477,-14.62121774801124,58.110050405203644,291348.5352901528,121891.10973929154,142902.27915406346,2452,2066,1452,0
-1014.3207925417945,-20.023655506291004,59.84716349295257,293375.8718717396,122291.4842752176,145258.79353194474,2360,2067,1452,0
-1011.5713695862725,-25.20822526422314,61.43365607657831,295418.76480042655,122680.46190341697,147632.13855893863,2249,2068,1454,0
-1009.1922153025938,-30.1330337576252,62.79375562740019,297460.03276416316,123054.68720061381,150009.4329677702,2131,2073,1452,0
-1007.1607438109919,-34.75319894213118,63.86879698662491,299484.72376820527,123410.7575881937,152377.98729471015,1998,2082,1452,0
-1005.4543711473387,-39.02535567902662,64.6201770641238,301480.09114932374,123745.62027633903,154725.25380815612,1815,2071,1453,0
-1004.0522380079575,-42.914676403642396,65.0302666284606,303435.3641818978,124056.6270357751,157038.97883713307,1737,2078,1452,0
-1002.9358987826304,-46.399957314765395,65.1001895938638,305341.3750289665,124341.40208281731,159307.40343162557,1576,2076,1452,0
-1002.0886867476144,-49.47435388410984,64.84424623262586,307190.21281191974,124597.68247363332,161519.40998749773,1419,2078,1453,0
-1001.4945359058516,-52.14357744552611,64.28265409226778,308975.0822948077,124823.23180519692,163664.71222881024,1310,2088,1453,0
-1001.137026251337,-54.42409812584708,63.43635279891309,310690.30403103144,125015.8387480973,165734.01292705451,1152,2096,1451,0
-1000.9989505236139,-56.34199568083847,62.325877080083416,312331.3002332798,125173.40273785355,167719.0516745886,993,2104,1456,0
-1001.0621248809016,-57.93178546233337,60.97288796722467,313894.5352408374,125294.1049330396,169612.65689826084,932,2105,1455,0
-1001.3071660628625,-59.2348124345797,59.401867562332335,315377.40523895994,125376.57236503459,171408.79095818975,857,2108,1455,0
-1001.7132121870524,-60.29728634297137,57.63984395360107,316778.10868334223,125419.91782905739,173102.551200247,749,2117,1454,0
-1002.2576582977281,-61.168083263405876,55.713739444065446,318095.57483147434,125423.65205783336,174690.20651802002,688,2135,1457,0
-1002.9160584251188,-61.89686613974407,53.64747856906514,319329.4196219904,125387.57800661189,176169.2219813787,576,2161,1456,0
-1003.6625738542972,-62.53278178914664,51.46126017440318,320479.8820794359,125311.7884545317,177538.19852356415,443,2169,1456,0
-1004.4713744133974,-63.12306789538623,49.17312238239104,321547.77157562686,125196.78685844758,178796.7853869725,425,2170,1462,0
-1005.3185697694681,-63.71137218881428,46.80164463672642,322534.4176821981,125043.62625512532,179945.57783259376,334,2176,1465,0
-1006.1837523285027,-64.33622904577808,44.36942121375804,323441.60437337856,124853.9553084992,180985.98102846052,291,2181,1463,0
-1007.050848781873,-65.02967093399873,41.90664586670441,324271.49180874316,124629.97432382488,181920.08358011034,238,2209,1628,0
-1007.9082979666143,-65.81618079675138,39.45283443403845,325026.4979182227,124374.3681117329,182750.5558378867,134,2214,1630,0
-1008.7485183012415,-66.71312994164565,37.05524631017735,325709.14800098725,124090.2114896043,183480.56198194966,145,2224,1631,0
-1009.5669350781587,-67.73327180035477,34.76473278935515,326321.94080744166,123780.81755032788,184113.69094512847,98,2225,1629,0
-1010.3609843496604,-68.88777479709263,32.63150604496668,326867.2474726357,123449.60722904878,184653.8851410439,111,2256,1637,0
-1011.1291480436258,-70.18779654927046,30.70238462902001,327347.26597702154,123100.091108853,185105.35338450377,71,2271,1638,0
-1011.8700075740586,-71.64450312780505,29.019049860344253,327764.05920021585,122735.92526329441,185472.49339492244,78,2277,1642,0
-1012.5816376701753,-73.26844132708366,27.616874863606732,328119.6369615687,122360.94452416527,185759.8318653784,26,2287,1639,0
-1013.2614880540287,-75.06870340368546,26.52418358266343,328416.02818123304,121979.09811462488,185971.96548512043,37,2304,1655,0
-1013.9065659683744,-77.05206953756638,25.761744847390183,328655.3385064794,121594.28123724049,186113.50007799602,23,2291,1662,0
-1014.5137058833749,-79.22203244832727,25.342669517216297,328839.7798428606,121210.16322525803,186188.99622311132,20,2307,1659,0
-1015.0795521475909,-81.57748862060672,25.27243851608248,328971.6333828068,120830.09058736786,186202.9246073999,9,2301,1672,1
-1015.600027677666,-84.11151053948979,25.548804587232055,329053.1550329933,120457.03723497111,186159.64000451687,0,2343,1674,1
-1016.0701060927128,-86.8112846817771,26.16250372112742,329086.49000680435,120093.56913106838,186063.3949474746,0,2326,1721,1
-1016.4852403167383,-89.65985934797506,27.09932554433839,329073.6340744461,119741.84122891231,185918.3935396739,0,2342,1702,1
-1016.8442209872483,-92.63848664064281,28.342727801667813,329016.4297565691,119403.65517497357,185728.82309314542,0,2354,1718,1
-1017.1515911043215,-95.72747353762753,29.876716560309067,328916.57872037863,119080.54944930981,185498.75050383713,0,2364,1704,1
-1017.4183585066407,-98.9052113002412,31.68900875827071,328775.63905738766,118773.84189284893,185231.85859504153,0,2379,1715,1
-1017.6613398096335,-102.14683337584464,33.773141445984635,328594.9811204745,118484.58537037135,184931.17547403957,0,2377,1714,1
-1017.9020706349013,-105.42376498108044,36.1284591356102,328375.6976285709,118213.4431058388,184598.9366962224,0,2383,1747,1
-1018.1655062310655,-108.70402247915568,38.75873033715983,328118.4871667842,117960.51420194165,184236.56555947315,0,2392,1747,1
-1018.4791372192803,-111.95255910850462,41.67061182182376,327823.5684662806,117725.20619868941,183844.7094433342,0,2373,1761,1
-1018.8739878248197,-115.13348456065646,44.86945652923817,327490.68695898243,117506.16118312051,183423.29111961965,0,2363,1778,1
-1019.3864731583205,-118.21747236001671,48.346654017801626,327119.2452072978,117301.04462732519,182971.56879905207,0,2376,1778,1
-1020.0576815325257,-121.18950232003468,52.06417991744765,326708.6289388757,117106.19752261954,182488.24779043283,0,2378,1808,1
-1020.929083425035,-124.0465013698885,55.95444423768433,326258.81124571397,116916.62351610445,181971.61485527022,0,2360,1835,1
-1022.0383536631574,-126.78823306726885,59.93782964597705,325771.00422940025,116726.74783501275,181419.5195838158,0,2375,1824,1
-1023.4188862139116,-129.41274976942802,63.940970502187284,325247.87774272583,116531.57763517105,180829.16641311123,0,2377,1825,1
-1025.1015209491889,-131.91498893766496,67.90719304573035,324693.1802798099,116327.37574717742,180196.9340297106,0,2405,1813,1
-1027.1159849950773,-134.2839356579541,71.80184897074365,324111.0852706931,116111.56420184333,179518.33497487687,0,2407,1813,1
-1029.492376589701,-136.5018334854402,75.6123933088677,323505.7312752458,115882.26576393828,178788.05692615273,0,2346,1877,1
-1032.2628991212782,-138.54681156970432,79.34314709598841,322881.10562555096,115637.81270899923,178000.0474807712,0,2410,1856,1
-1035.4627677230992,-140.39531698956526,83.00863041188201,322241.0733930574,115376.33502900918,177147.61968662465,0,2426,1871,1
-1039.1299467458653,-142.02303137074537,86.62724610309981,321589.3805090422,115095.56088287118,176223.54751634743,0,2380,1881,1
-1043.3043799616091,-143.40601709294577,90.21512433203195,320929.63489574136,114792.88010370906,175220.14989526922,0,2375,1894,1
-1048.0272007829035,-144.52278092902944,93.78175793020048,320265.34750165953,114465.54870810555,174129.3983172724,0,2391,1881,1
-1053.3399809629727,-145.35647016712593,97.32838945971943,319600.0725189018,114110.90117774245,172943.0585715213,0,2332,1963,1
-1059.28394210956,-145.89688428708382,100.84782277145383,318937.6256532634,113726.51320480887,171652.84041204542,0,2279,1983,1
-1065.8990274807265,-146.14185041463742,104.32454766115949,318282.34664911457,113310.29668558673,170250.5562485301,0,2196,2037,1
-1073.2230395305214,-146.09690698769393,107.73552722359867,317639.38154136715,112860.53847575023,168728.28313352793,0,2196,2039,1
-1081.2913032995082,-145.7732559718985,111.05207953880327,317014.95530686626,112375.92647125562,167078.49952702346,2,2099,2064,1
-1090.136727102539,-145.18522768504042,114.24217566691338,316416.5660837411,111855.6092977021,165294.21888299382,0,2073,1971,1
-1099.789824544481,-144.34803257055947,117.27299920050227,315853.02112770075,111299.30369860017,163369.12567097234,0,2020,1959,1
-1110.2787042000214,-143.2758640283205,120.1144031677769,315334.3128953366,110707.42943120035,161297.67971750215,0,1974,2033,1
-1121.628940098404,-141.98068393235505,122.74226689194997,314871.4299042325,110081.22933165498,159075.23023735403,0,1963,2055,1
-1133.8631965197226,-140.47170131282266,125.14024613047128,314476.1337450055,109422.7964116907,156698.1320405783,0,1887,2094,1
-1147.0005882776625,-138.75507313742696,127.30000179757855,314160.666634406,108734.95826468543,154163.77399880876,0,1800,2145,1
-1161.0553566937008,-136.83359766627348,129.22008478255003,313937.46715835854,108021.08534906006,151470.5789041618,5,1773,2190,1
-1176.0344958508842,-134.70630538252192,130.90339844501565,313818.9680283078,107284.89916645485,148618.07793449436,0,1690,2229,1
-1191.9346744028903,-132.3681343666172,132.3541898736436,313817.4249466921,106530.30142794721,145607.0356898438,0,1658,2242,1
-1208.7394959857556,-129.81023923921612,133.57542640102054,313944.7010425141,105761.25274783616,142439.52416974772,0,1613,2275,1
-1226.4177953831374,-127.02112214733086,134.56648980906743,314211.96913306636,104981.71575903299,139118.8803767412,0,1600,2310,1
-1244.9223047705336,-123.98814578360353,135.3214823587568,314629.38155359373,104195.67349497914,135649.68135542548,0,1461,2330,1
-1264.1878534517389,-120.69917637922005,135.82870722803955,315205.74968332873,103407.21652447153,132037.8113929021,0,1418,2324,1
-1284.1290980176416,-117.14464033641998,136.07107031664313,315948.19797416474,102620.64457463588,128290.49929071897,0,1316,2367,1
-1304.6378372920456,-113.31983623077973,136.02670973625695,316861.8248631753,101840.54804554356,124416.38420520861,0,1319,2370,1
-1325.5802117675137,-109.22699526576795,135.66949512088377,317949.434958561,101071.83449618383,120425.65369657504,0,1207,2388,1
-1346.7943197281963,-104.87715790284942,134.96929428759748,319211.3189448285,100319.6649109378,116330.10755110966,0,1199,2381,1
-1368.08807817667,-100.29198647467443,133.89171829380842,320645.03607682284,99589.36033769886,112143.22343679515,0,1174,2394,1
-1389.2371894369494,-95.50551122237879,132.39704346280044,322245.2174840327,98886.35461896603,107880.29307864877,0,1114,2421,1
-1409.983174470975,-90.56611283976135,130.4388667417184,324003.4405096149,98216.19815908595,103558.47730512264,0,1089,2418,1
-1430.031065992336,-85.53868047326712,127.96392210729564,325908.16282410716,97584.64088168883,99196.85190790915,3,978,2451,1
-1449.0483029894765,-80.50607779112345,124.91503592365527,327944.70849947404,96997.88199144279,94816.5041040031,13,935,2467,1
-1466.6672862996836,-75.56904627300302,121.23855769601758,330095.31885238277,96463.02182930878,90440.51593947902,11,937,2471,1
-1482.4913181221514,-70.84399248603007,116.89485860842845,332339.11801638943,95988.59963485277,86093.94703193013,14,966,2455,1
-1496.1046327800384,-66.4571921681669,111.87027495229795,334651.7606428116,95585.02396998642,81803.9614203846,0,1006,2423,1
-1507.0876200702176,-62.53519938229552,106.18955315088115,337004.7128105466,95264.73250389153,77599.97881314426,8,1073,2383,1
-1515.032254808585,-59.19657547501187,99.92326898462655,339364.40151213296,95041.94866667678,73513.9137455024,13,1159,2324,1
-1519.5534832862234,-56.550266571303304,93.1840968883694,341691.823653147,94931.92594336424,69580.65164049254,10,1319,2249,1
-1520.2996114267023,-54.70008227534382,86.1147795025759,343943.1863975558,94949.84458641164,65838.71410768174,5,1359,2171,1
-1516.967679845407,-53.75189152868472,78.87353120690254,346071.53868251067,95109.92103243004,62331.00802104853,4,1487,2044,1
-1509.3259209912023,-53.818679774273534,71.6169804979583,348029.6289667195,95425.01407979973,59105.29514495369,5,1553,1948,1
-1497.2349134202836,-55.01606776000855,64.48261386889173,349774.43189772783,95906.40972540702,56213.88715890117,1,1690,1829,1
-1480.655887107551,-57.440383092210645,57.57731627584541,351272.2177489694,96563.49169076292,53712.564759106324,0,1687,1789,1
-1459.6428753115963,-61.12931567131123,50.975728436329334,352503.15817455045,97403.2556822483,51658.66033474247,14,1716,1754,1
-1434.3239030553098,-66.02053608018294,44.7277154843819,353465.7296547441,98429.68860109126,50108.152377131344,2,1793,1683,1
-1404.8808148036098,-71.9249138003622,38.871101403341676,354179.82172679715,99643.17850627763,49112.705176623575,0,1831,1671,1
-1371.530259678674,-78.51884963582506,33.444623535553596,354686.5429447281,101040.15506920236,48717.57575639388,2,1835,1645,1
-1334.5022094798996,-85.3548399475166,28.49674678046144,355044.6034433593,102612.9321611333,48960.23783827111,2,1851,1617,1
-1294.0229536171098,-91.88912262974803,24.087650763132295,355325.1216484029,104349.61304194818,49869.781221584366,9,1856,1599,1
-1250.313260199451,-97.53276301704246,20.28486132506806,355605.62256676616,106234.15090779078,51467.51245745469,6,1872,1585,1
-1203.6001154571813,-101.72849964110638,17.154441697881843,355962.59760828654,108246.78614280066,53768.50380714835,0,1899,1549,1
-1154.133759710729,-104.02575587478198,14.750407315844225,356464.03170939203,110364.88291633817,56783.08166092856,9,1915,1532,1
-1102.2042798049022,-104.12519947085873,13.105256312341199,357163.6022525472,112564.59169404545,60517.52246141787,0,2015,1453,1
-1048.154543207948,-101.89351739357289,12.223747125611217,358096.2552008304,114823.86216530406,64973.980539485936,0,2012,1450,2
-992.3872950477432,-97.35727737450097,12.083397638579761,359275.655100158,117125.87539408686,70149.82243619472,0,2009,1455,2
-935.3638270555538,-90.67873014337356,12.645533571474992,360694.8783212771,119461.52316519148,76036.64472059363,0,2012,1451,2
-877.5939448693172,-82.11806078250592,13.874747778382293,362330.01433246443,121830.56070017762,82619.44947096809,0,2012,1452,2
-819.623628843621,-71.99436149838807,15.756749498145423,364144.65360145876,124241.10988632862,89876.28293368063,0,2006,1460,2
-762.0215924519661,-60.64973225742454,18.305840496595565,366094.277413228,126706.91291436584,97778.7215487989,0,2006,1456,2
-705.3584110274621,-48.40948334277138,21.560869045581303,368130.8804785379,129242.77788122963,106293.31375851197,0,2010,1453,2
-650.1831215283205,-35.54655050806521,25.572631107623916,370206.8455511729,131860.27810265156,115382.99696242722,0,2009,1452,2
-597.0057415429116,-22.268049500350923,30.38583101441048,372277.1898613592,134565.48504794,125007.99389687981,0,2010,1451,2
-546.2851500202797,-8.72665734328926,36.020559409619736,374301.15432418726,137358.7158060827,135126.87408416753,0,2008,1453,2
-498.42445747214236,4.955421107523915,42.46182201421451,376243.647081837,140235.4628281098,145697.58561810423,0,2008,1453,2
-453.77624451697267,18.66333737691657,49.66087788675902,378076.17184229096,143188.07961767618,156677.85219806997,0,2006,1456,2
-412.6520930327909,32.27357474737811,57.54326287969085,379777.2952741729,146207.95325181805,168025.16414374625,0,2005,1455,2
-375.3298137205143,45.648910071262044,66.01910342362513,381332.81554144947,149287.2460664914,179696.35935414222,0,2005,1454,2
-342.0562944561749,58.64572775283544,74.99502595390287,382735.7309721329,152419.51309233336,191646.95889589444,0,2005,1455,2
-313.0475428810828,71.12612386392847,84.38468118096935,383986.183612914,155599.52463000503,203830.94733918732,0,2005,1455,2
-288.4871153690254,82.9669982402839,94.11498362850398,385091.31800856645,158822.71493857243,216200.88841845616,0,2005,1455,2
-268.52385016186645,94.06590876334664,104.12848588838311,386064.88254713424,162084.41069844883,228708.31161548028,0,2006,1453,2
-253.27115484129826,104.34455697342521,114.38279994759303,386926.58549822035,165379.02421197563,241304.7642029114,0,2004,1456,2
-242.8071469630625,113.74928398946936,124.84828281861844,387701.15038992366,168699.43336103833,253942.81435884364,0,2008,1453,2
-237.17364221428022,122.24950379574284,135.50461162020017,388416.9545918909,172036.67070064766,266576.243211669,0,2005,1458,2
-236.37537914478457,129.8356652679489,146.33677693265662,389104.53667495324,175379.856725424,279159.8063833308,0,2007,1453,2
-240.3807433999819,136.51770021269698,157.33406025373952,389795.19812344766,178716.44650853914,291649.2098798981,0,2009,1451,2
-249.12266501182185,142.32389269544424,168.49451570743358,390519.522721168,182032.886652477,304001.58293848287,0,2008,1452,2
-262.4985173338545,147.2990029483561,179.8317314624181,391305.89864788303,185315.27397490127,316175.90246764343,0,2006,1455,2
-280.37021008711844,151.49980592921963,191.3794794913987,392179.1183827117,188549.67837461064,328133.11420608516,0,2004,1458,2
-302.5663593354931,154.98715185442504,203.19303201095804,393158.8649478761,191722.3177007907,339836.5253922817,0,2005,1455,2
-328.88593452981564,157.81682663763956,215.3470033532185,394258.330759494,194819.6461470463,351252.17455281905,0,2004,1458,2
-359.1025889225699,160.0321721779207,227.9292638776235,395483.3063419692,197828.32745169912,362348.7779008264,0,2004,1459,2
-392.9697694992592,161.6595397163723,241.0317673848808,396831.6075250402,200735.23238678247,373097.7204853598,0,2004,1455,2
-430.2241643091016,162.70706279768356,254.74117925577582,398292.68979163293,203527.41818341453,383472.9942917069,0,2004,1454,2
-470.58662929502407,163.16666399928354,269.13106714411117,399847.472348072,206192.07185046657,393450.94297054736,0,2004,1455,2
-513.7634622749396,163.01822248040506,284.25480647886616,401468.33622749127,208716.59002402346,403010.3124137419,0,2005,1455,2
-559.4482845407329,162.23427037422252,300.1390385161305,403119.18850148824,211088.75477542004,412132.42998265446,0,2004,1457,2
-607.3248203693967,160.7838161547709,316.77817892906575,404755.6852191513,213296.95606204827,420801.21376512584,0,2007,1452,2
-657.072701431279,158.63432317381105,334.1294497095964,406325.8086859224,215330.56810349907,429003.31338093977,0,2008,1453,2
-708.3733376710198,155.75096622682457,352.1085967586502,407770.69883603475,217180.33755923522,436728.15899654455,0,2008,1455,2
-760.9129908179423,152.09242350362965,370.58835105608,409025.84508312895,218838.66534951347,443967.5943898155,0,2008,1451,2
-814.3850863833434,147.60326538331896,389.40109745944966,410022.955959817,220299.92651317068,450715.3690691766,0,2008,1452,2
-868.491389315597,142.20556027931028,408.3439172604803,410692.10668130754,221560.74838076512,456966.5422812235,0,2008,1452,2
-922.9418544945705,135.7922940712555,427.18496887135194,410963.93370721105,222620.0121114846,462716.7403206618,0,2009,1451,2
-977.4556390789822,128.22258035923244,445.67262832269785,410772.5186715115,223478.5202282238,467961.513818383,0,2008,1452,2
-1031.7613975549386,119.31979612816578,463.545416759629,410058.8354744398,224138.39388228394,472695.82155647833,0,2008,1453,2
-1085.5948445657746,108.87568536080609,480.5410541849882,408773.6741115657,224602.37824770645,476913.434006181,0,2008,1453,2
-1138.6968702650943,96.66169963127966,496.4075460009323,406879.76793705596,224873.15595016754,480606.3104385616,0,2008,1453,2
-1190.8134430939392,82.44480772236848,510.91550054888984,404353.5992562964,224952.61905829614,483764.1466522485,0,2007,1455,2
-1241.6942362332209,66.00245318759396,523.8660005057621,401186.78844943224,224841.20362929118,486374.0674573631,0,2008,1453,2
-1291.0899921294588,47.13409763142795,535.0915997628537,397386.6158213886,224537.4029048953,488420.40919243277,0,2004,1454,2
-1338.7514769585512,25.67009228641829,544.4528444677991,392975.73882996937,224037.42630398474,489884.6709484849,0,2008,1453,2
-1384.4294627104628,1.4774379462690952,551.8336343774298,387991.61438686686,223335.09430666576,490745.59408393473,0,2009,1452,2
-1427.87534849854,-25.53866895107144,557.1376504198543,382485.727789634,222422.19241749455,490979.34425123205,0,2010,1451,3
-1468.8443218698658,-55.43565508370251,560.287292779354,376522.40361566615,221289.307770157,490559.9016779458,0,2008,1453,3
-1507.0985024883423,-88.23194077208018,561.2253242851608,370177.5707306634,219926.8255467744,489459.57619483705,0,2011,1451,3
-1542.4068671582363,-123.89904812854908,559.9185394059573,363537.47503498796,218325.8286779189,487649.51427764964,0,2010,1453,3
-1574.54405541926,-162.34868875627868,556.3629887714775,356696.69782795187,216478.9517441157,485100.2669939051,0,2002,1460,3
-1603.2905552168345,-203.42039424413886,550.5887308920933,349755.86402021436,214381.16021351816,481782.4814422266,0,1986,1474,3
-1628.4369006642553,-246.87460947547393,542.6615142612275,342819.19518046133,212030.30750839287,477667.77299090836,0,1985,1475,3
-1649.7935617269172,-292.39101611485705,532.682507762095,335991.2226327061,209427.48710448563,472729.8550477697,0,1976,1479,3
-1667.20181711584,-339.56826881109725,520.7892916836182,329373.4546466812,206577.31575308574,466945.834645889,0,1981,1471,3
-1680.5424100764346,-387.9246906484194,507.15811434395994,323061.7765076834,203488.12622174824,460297.5631077445,0,1976,1484,3
-1689.7447110071646,-436.9012989274729,492.0042787378194,317143.8870363905,200171.88602055877,452773.05611871707,0,1972,1487,3
-1694.795608228418,-485.8642519653422,475.5788141173851,311696.9681703444,196643.83565219896,444367.9630621876,0,1954,1496,3
-1695.7443658362645,-534.1060063678389,458.16032914270517,306785.99824447243,192921.81925512807,435086.9456242959,0,1928,1526,3
-1692.702527199933,-580.8486003265364,440.04155192037797,302462.10974581965,189025.27470031744,424944.8640926806,0,1929,1519,3
-1685.841089253943,-625.2480896032458,421.5143944229637,298761.0860639014,184974.37168157048,413967.9177927412,0,1922,1529,3
-1675.390011200481,-666.4021498235827,402.8555552311771,295702.2020222096,180789.70678248137,402194.7442815677,0,1922,1523,3
-1661.6430733706252,-703.3687227816196,384.3116491096443,293286.86789942975,176492.47132309416,389677.22840155364,0,1932,1523,3
-1644.9628421628072,-735.1948002694455,366.08941505377305,291497.30157329363,172105.26275721096,376481.058776448,0,1916,1532,3
-1625.7750614052684,-760.954633793999,348.3596126684944,290296.14698824997,167653.87444477895,362685.7293474917,0,1921,1531,3
-1604.550425136926,-779.7997389774761,331.2761418896031,289627.4087542011,163169.62841654324,348383.6153061616,0,1929,1527,3
-1581.7838169759239,-791.0049833690905,314.9986468513206,289418.3905248429,158690.85681692947,333678.971239621,0,1924,1524,3
-1557.9732334947053,-794.0002379573801,299.69700144097334,289582.5313339626,154261.73715195732,318686.8873136693,0,1925,1527,3
-1533.5923304705464,-788.40317996722,285.52824392241274,290023.28401090135,149927.97986427485,303531.0061294114,0,1923,1527,3
-1509.0638647296416,-774.0588276010087,272.6029420749237,290638.3116045201,145731.6917046937,288340.807563984,0,1922,1524,3
-1484.7473739049276,-751.0732199188849,260.9617360301914,291323.7165330006,141708.0956261859,273249.4275544207,0,1913,1537,3
-1460.9434815391712,-719.8342698466663,250.562934590783,291978.83556591166,137884.55701014027,258391.01314030678,0,1920,1529,3
-1437.9061018108866,-681.0153475285844,241.2773422495201,292510.76867967454,134281.4671748916,243897.57665519437,0,1918,1529,3
-1415.8475512514985,-635.5508675817518,232.89837221081012,292838.09901349037,130914.5546335055,229895.16165431833,0,1912,1533,3
-1394.930809493417,-584.5828818398459,225.17225129982148,292894.61250543623,127797.726667578,216498.42985548204,0,1917,1535,3
-1375.258255567826,-529.4025938318695,217.83517120334574,292632.47053379536,124945.13122969441,203805.8368665423,0,1942,1515,3
-1356.8635932893565,-471.40367909657084,210.64167947204012,292023.5683145839,122371.32431333969,191897.76321395912,11,1965,1491,3
-1339.7055925373984,-412.0398168602872,203.38127126529318,291059.25174649444,120089.55845743092,180836.68859890493,169,1954,1501,3
-1323.6636131103014,-352.78877641819923,195.88703465383023,289749.285547176,118109.61361404086,170668.21631772205,512,1973,1483,3
-1308.5384948943865,-295.1238886174642,188.04087841702741,288120.20890711417,116436.55446480763,161422.44872668057,1164,1979,1478,3
-1294.0639674608299,-240.47331113142968,179.7738915278079,286212.6852316332,115070.47688533092,153115.07341035616,2072,1985,1477,3
-1279.930213626698,-190.15445991099858,171.05476426882262,284078.5424439057,114006.50781369959,145748.0292946855,2502,1994,1465,3
-1265.8186106626733,-145.26368202407116,161.86510889095683,281779.29896393046,113234.11251002029,139309.5383816714,2650,1989,1470,3
-1251.4444184928866,-106.51411210806188,152.17348344774567,279387.4855537408,112735.37695234102,133773.1367563122,2718,1994,1468,3
-1236.5984286928242,-74.10392107936467,141.9359177323715,276990.1344795971,112483.59124591478,129096.69664588782,2735,2010,1454,3
-1221.184926564267,-47.732239189845444,131.15131585919866,274690.58606905455,112444.4168616893,125223.44673192823,2738,2011,1453,3
-1205.2542800612723,-26.77293723739442,119.9422733457766,272601.9245947866,112580.34704814412,122086.36172850992,2726,2010,1453,3
-1189.0104663518514,-10.485289826844015,108.57531311694203,270829.82499598176,112855.75246672437,119615.23057482339,2633,2011,1453,3
-1172.76976181663,1.8523345519442391,97.39850314723564,269454.1793811098,113239.07170433039,117743.33605692434,2568,2011,1452,3
-1156.8771026472623,10.89007028328476,86.7584156896657,268520.9393789716,113702.06246352765,116411.17043338568,2462,2009,1455,3
-1141.6253467714248,17.192409476304775,76.94266938490195,268045.105283056,114218.6558279239,115567.26818904723,2392,2012,1451,3
-1127.2165567352001,21.23568353445351,68.15971351651402,268018.41450344934,114765.24009742527,115167.37489776991,2309,2014,1452,0
-1113.7649102752366,23.409286118618105,60.54890046799178,268416.6348581369,115322.14665916974,115172.75590700512,2333,2011,1452,0
-1101.319681463901,24.02748339508454,54.19702466206714,269205.1974468492,115874.97651649031,115548.1178953892,2377,2012,1454,0
-1089.886912634453,23.351258337700294,49.14448180961826,270343.0549351972,116414.68848080025,116259.90593410762,2401,2016,1450,0
-1079.441022250025,21.607548677363358,45.383706693800185,271785.22553724033,116936.42325138421,117275.65736693681,2389,2020,1452,0
-1069.9313396726236,19.000519132946728,42.860550747865666,273485.12997232255,117437.9594550425,118564.2490095017,2387,2029,1455,0
-1061.2887257540558,15.716759277237454,41.48283131245798,275396.53074663365,117918.8156608326,120096.41038085653,2412,2022,1455,0
-1053.4334808703218,11.925353415808376,41.13243527462708,277474.6541153162,118380.187516565,121845.08009833252,2401,2013,1453,0
-1046.285076469918,7.773893656948865,41.674944440751936,279677.09462475986,118825.01212518489,123785.48703063373,2358,2034,1454,0
-1039.7720393551317,3.3830644712242757,42.96299150810048,281964.7579360107,119257.53999062703,125894.92854191842,2359,2033,1451,0
-1033.838899014056,-1.1564704388222862,44.837605480593716,284302.71693056513,119682.42026871067,128152.28327287597,2311,2042,1450,0
-1028.4480170379734,-5.781557630179099,47.13528908278945,286661.0179628555,120103.72044072683,130537.41679324511,2294,2047,1451,0
-1023.5754401299934,-10.448988343635277,49.70025903317787,289015.16349259473,120524.35932265774,133030.66860266883,2267,2062,1452,0
-1019.2024050844427,-15.127095836524225,52.3946403127544,291345.9565121974,120945.98561279094,135612.625658322,2216,2060,1452,0
-1015.3075354333787,-19.789404066327165,55.10184063524842,293638.8387983908,121368.9126896551,138264.2536820455,2140,2065,1452,0
-1011.8642863250461,-24.410415512608385,57.723656398092174,295883.0106486757,121791.94954908987,140967.13358100315,2069,2055,1453,0
-1008.842276973713,-28.962312620332806,60.1758343691786,298070.4976774308,122212.43333149956,143703.60529918116,1920,2058,1454,0
-1006.2091693784196,-33.41206995882487,62.38630087049105,300195.24837306835,122626.72232175991,146456.8996724233,1831,2062,1451,0
-1003.9327247702292,-37.72045597619468,64.29630428064343,302252.38695651345,123030.89528456802,149211.21428945026,1647,2074,1453,0
-1001.9830712692412,-41.844109619785925,65.86231741605447,304237.699051291,123421.22327256319,151951.67694041427,1511,2068,1453,0
-1000.3341318107693,-45.73940142746564,67.05622211835826,306147.28661701723,123794.27201388734,154664.34362142664,1428,2094,1453,0
-998.9634956676028,-49.365383712831274,67.86306243306889,307977.3296029966,124146.74320779608,157336.22610118124,1263,2102,1454,0
-997.8513014378331,-52.685249828892815,68.27793896673833,309724.0219452792,124475.28159382254,159955.29865800703,1143,2120,1455,0
-996.979408219547,-55.66799793505391,68.30357412035941,311383.7183293322,124776.43708292836,162510.5715643629,1025,2116,1456,0
-996.3314483602596,-58.29076214412333,67.94920549095727,312953.1128324098,125046.77465434629,164992.1532679751,977,2108,1455,0
-995.893270328028,-60.541134683722284,67.23102117487159,314429.3501901755,125283.03883285877,167391.2230516685,867,2114,1458,0
-995.6531995052941,-62.41913564927209,66.17345219092647,315810.1704143038,125482.32055773669,169700.01798412888,773,2117,1454,0
-995.6018387737203,-63.93785551640375,64.80964499480096,317094.0491629632,125642.1605741052,171911.80180745092,737,2121,1453,0
-995.730768817701,-65.12157886263182,63.17920779260368,318280.24861382204,125760.53465550161,174020.76469470924,621,2113,1458,0
-996.0300967490584,-66.00217655085143,61.323330894170695,319368.8375162405,125835.76804181466,176021.96571015127,575,2146,1458,0
-996.4862474066449,-66.61606418912784,59.28015143192232,320360.67820897384,125866.48520196402,177911.3218197797,512,2125,1460,0
-997.0814187489801,-67.00256377094212,57.08277723505501,321257.3381386625,125851.68361538077,179685.60231481201,448,2116,1456,0
-997.7949452789104,-67.2028174661087,54.76016271254484,322060.9917706056,125790.93629024626,181342.47356768037,406,2122,1457,0
-998.6056226632759,-67.25858927425809,52.33993260489535,322774.3648576956,125684.60840134612,182880.51821857502,284,2143,1464,0
-999.493792860707,-67.21078520806137,49.85184852412795,323400.71758216765,125533.96468413177,184299.14304881752,291,2161,1461,0
-1000.4427255177796,-67.09831242588992,47.33050631842389,323943.86712604563,125341.14548641138,185598.445656338,241,2176,1635,0
-1001.4392327593821,-66.95811207920136,44.8161866070527,324408.21098953875,125109.05920309699,186779.09188377234,180,2182,1645,0
-1002.4736279901227,-66.82563461863975,42.35362339862784,324798.7003558706,124841.21850621275,187842.2232156823,147,2204,1643,0
-1003.5393528331892,-66.7343706948246,39.98948553948537,325120.7553208837,124541.53616427453,188789.4239865434,104,2244,1654,0
-1004.6323278709907,-66.7143631737362,37.7699539677575,325380.1295976003,124214.15681843637,189622.6942742945,79,2239,1672,0
-1005.7498278511764,-66.79048310799138,35.738840207240074,325582.7244863715,123863.36048302923,190344.38083198052,81,2218,1672,0
-1006.8891367125636,-66.98107923312003,33.935567041567474,325734.3626254514,123493.47363767018,190957.11225133872,66,2217,1669,0
-1008.0467194648013,-67.29754468882905,32.39296203846923,325840.5739254218,123108.76681552062,191463.7631379803,63,2196,1691,0
-1009.2180454660615,-67.74546645051699,31.135096689018457,325906.44233119447,122713.35721041683,191867.4357211492,19,2208,1682,0
-1010.3973543435995,-68.32744861922441,30.17525807337228,325936.5269830147,122311.11729957194,192171.4611090297,7,2221,1687,0
-1011.5770308681485,-69.04632288221082,29.514931681412595,325934.8749964903,121905.63218567058,192379.40453110918,0,2235,1695,0
-1012.7472059025519,-69.90708520709929,29.144823479609478,325905.1443757465,121500.23104594211,192495.06236714224,0,2182,1722,0
-1013.8961339812219,-70.91698229818228,29.047867246925833,325850.8090032722,121098.03591750152,192522.45935633962,0,2196,1720,1
-1015.0111487831989,-72.08416174435916,29.20273284898955,325775.3434112194,120701.97533162104,192465.83371430318,0,2186,1731,1
-1016.0800650385139,-73.41566091922668,29.586473217339787,325682.30291251396,120314.73939496289,192329.57928269845,0,2202,1739,1
-1017.0930695929595,-74.91548279693004,30.17650174248772,325575.324377417,119938.67359347852,192118.1397938271,0,2241,1733,1
-1018.0442740210872,-76.5833999768199,30.952145757118487,325458.09306699474,119575.6740362893,191835.90118949802,0,2245,1730,1
-1018.9318061829789,-78.41486103428288,31.895459483887414,325334.2407440862,119227.14433337393,191487.12068054147,0,2231,1743,1
-1019.7565758501004,-80.40185199527676,32.99148821214579,325207.1531847901,118894.00713233324,191075.88998184376,0,2221,1753,1
-1020.5209197978692,-82.53404444809016,34.22848285240665,325079.77586798434,118576.75477750476,190606.14281938114,3,2244,1750,1
-1021.2279831076548,-84.79957590420119,35.59841612078743,324954.4862709038,118275.52858008772,190081.70817480347,0,2254,1775,1
-1021.8817826944091,-87.18546453698595,37.09773587786701,324832.99908670306,117990.20456308535,189506.36693177026,0,2288,1764,1
-1022.487724793951,-89.67807580363792,38.727928864465134,324716.28767955955,117720.4626822517,188883.87781677864,0,2297,1786,1
-1023.0534683950077,-92.26380432959672,40.495882147447524,324604.5394914096,117465.82220552466,188217.96599833565,0,2300,1782,1
-1023.5896514197643,-94.92953211932792,42.414215954361595,324497.12881044595,117225.64144147564,187512.28105090515,0,2320,1782,1
-1024.1104913219915,-97.6626651478889,44.50076975572819,324392.5651222843,116999.07254860913,186770.3182959028,0,2335,1789,1
-1024.6354626242253,-100.45156776954308,46.77591359593502,324288.39747712977,116784.96219663309,185995.30318821542,0,2338,1802,1
-1025.1916197727483,-103.28746858511228,49.256422725551396,324181.15792308724,116581.68398760863,185190.1153508436,0,2360,1798,1
-1025.8131203328912,-106.16678245306868,51.94617957550984,324066.5783874597,116386.86472115252,184357.29472245122,0,2383,1791,1
-1026.5362559705163,-109.08920485277707,54.82993899597322,323940.2319186797,116197.12645220116,183499.0504691571,0,2327,1830,1
-1027.39396048797,-112.05119133781834,57.876207692896294,323798.2870477505,116008.16511687268,182617.20602205693,0,2365,1820,1
-1028.4150355830159,-115.0421859033304,61.045706550404184,323637.8365448112,115815.31781268955,181713.04347996856,4,2347,1855,1
-1029.6274581523328,-118.04537995238879,64.29935719422183,323456.6954621157,115614.29936814013,180787.0769912268,0,2303,1890,1
-1031.0612242934378,-121.03831845735031,67.60312287781744,323253.0557086079,115401.59017298355,179838.9085245506,0,2323,1902,1
-1032.749291257921,-123.99387895952724,70.92874765178152,323025.37298975553,115174.32826861057,178867.207180826,0,2308,1908,1
-1034.7279361808673,-126.8834220214189,74.25206106331154,322772.5028981974,114929.9604225569,177869.71352181758,0,2230,1948,1
-1037.036885947992,-129.67962855052895,77.55126434858533,322493.8744420493,114665.9642414688,176843.26076637133,0,2237,1949,1
-1039.7186481460217,-132.35766431239364,80.80577913628241,322189.58175502584,114379.79655022208,175783.82598688162,0,2244,1970,1
-1042.8169141721094,-134.89619013402194,83.99550280622057,321860.4353339992,114069.00975885672,174686.57517694394,0,2141,2033,1
-1046.374708324771,-137.27881205383082,87.10051515285406,321508.0416564274,113731.40598165526,173545.93255286082,0,2130,2060,1
-1050.4329832472308,-139.49513242848047,90.10113359193281,321134.9386404617,113365.17152908647,172355.71380654952,0,2029,1963,1
-1055.0296526578757,-141.54111087317833,92.9782542343685,320744.7819035394,112968.99482614543,171109.28842429415,0,2007,1969,1
-1060.1990393120543,-143.41883093562814,95.71426414178337,320342.5334629388,112542.16395608668,169799.74024890712,0,1969,1989,1
-1065.9721049800035,-145.13548597070164,98.29435472208472,319934.59959652275,112084.62795485718,168420.02533216836,0,1901,2083,1
-1072.3771739293697,-146.70181146365442,100.70739649196409,319528.91890125675,111597.02431817303,166963.1262126594,0,1921,2112,1
-1079.4408219057107,-148.1303238883069,102.94604360004497,319135.0062096212,111080.66097508832,165422.1813928822,6,1899,2133,1
-1087.1896875295622,-149.43310962901904,105.00629806890171,318763.93823529134,110537.43667583879,163790.56432853593,0,1812,2179,1
-1095.6520355213238,-150.6191615222582,106.88701732185541,318428.2938786565,109969.7471144754,162061.9436065345,0,1727,2252,1
-1104.8555449990051,-151.69170249775456,108.59042350686562,318142.0191676278,109380.43400892729,160230.32289997544,0,1656,2272,1
-1114.8215446169588,-152.64588291372363,110.12382900582713,317920.1504298824,108772.79886723713,158290.02152835068,0,1575,2323,1
-1125.5603212685335,-153.46731970080972,111.50135921668591,317778.43164271256,108150.68107077625,156235.6777692738,0,1541,2341,1
-1137.070590771875,-154.1315186721389,112.74464002911608,317732.8017357424,107518.4974131722,154062.3251225923,2,1524,2385,1
-1149.342124338449,-154.60391539452763,113.88183107490258,317798.6625820962,106881.11668129067,151765.4763460952,0,1421,2435,1
-1162.3582776841133,-154.84094148455387,114.94469231454502,317990.11173890624,106243.6018542534,149341.24650617858,0,1368,2460,1
-1176.0966174062341,-154.79332848335002,115.96362469297898,318319.3585224351,105610.87422188185,146786.5276920209,1,1324,2482,1
-1190.5282505571406,-154.41171183807276,116.96113376363597,318796.28858532046,104987.31829448385,144099.1206207921,0,1239,2521,1
-1205.6164245609818,-153.6520950520851,117.94603987360837,319428.1784301918,104376.49305797853,141277.85191239938,1,1106,2563,1
-1221.314698335162,-152.47937669580523,118.91069317699495,320219.6453931643,103781.100947606,138322.70399931073,0,1036,2596,1
-1237.5651612429417,-150.869444657601,119.83087058821518,321172.7793063862,103203.15308282411,135234.87382272843,0,970,2612,1
-1254.2964556552868,-148.8101930010428,120.66700419928058,322287.29414776334,102644.20480739005,132016.8209708196,12,891,2661,1
-1271.4212007292265,-146.30137277270134,121.36596974981646,323560.61980002746,102105.59620336677,128672.34221438863,0,836,2677,1
-1288.8330605488186,-143.3538416396026,121.8631087490996,324987.95339567837,101588.66748676752,125206.57186126104,1,785,2700,1
-1306.404051316968,-139.98901573297636,122.08461589910412,326562.3106068911,101094.92530583432,121626.00762854646,0,737,2715,1
-1323.9824721227833,-136.23911047614334,121.95053299809362,328274.6034601733,100626.16548735455,117938.70641093684,3,677,2732,1
-1341.3911923975547,-132.14839336895506,121.37789625468474,330113.6770711873,100184.59172261118,114154.58060469538,3,643,2737,1
-1358.426368898965,-127.77505346003963,120.28424122555899,332066.26785675116,99772.98133701534,110285.631148789,3,641,2739,1
-1374.857219346804,-123.19280764475835,118.59251360058636,334116.9617251179,99394.92248723548,106346.01580061115,0,635,2737,1
-1390.4267357486824,-118.49116016225685,116.23721554979426,336248.1305108111,99055.08585894038,102352.07935035664,0,640,2738,1
-1404.8543506640174,-113.77281347434288,113.1723389741014,338439.74832548783,98759.4883791718,98322.425418722,0,646,2732,1
-1417.8422042698762,-109.14783678513439,109.3818886952511,340669.05505947274,98515.7073776574,94277.92371493162,16,684,2695,1
-1429.0826619256577,-104.72707426787325,104.88897471064239,342910.05000663834,98332.90516525565,90241.77740881006,2,757,2658,1
-1438.2640527471438,-100.61735389307982,99.75706340921518,345132.8685893492,98221.40608902567,86239.78768422773,0,827,2600,1
-1445.075042542034,-96.9193438084261,94.08221796199236,347303.23363639496,98191.76979389622,82300.69146168075,8,879,2527,1
-1449.2085374156572,-93.72922509459727,87.98097393304731,349382.2486432499,98253.83723120442,78456.5512246811,16,1017,2434,1
-1450.368490999456,-91.14555144284121,81.57749897565675,351327.0773066551,98416.37750561183,74743.23337823893,15,1117,2371,1
-1448.2840981883537,-89.2798151930442,74.992168395704,353092.93201211654,98687.50217132647,71200.90638416151,4,1190,2269,1
-1442.7282376950277,-88.26275877289324,68.3354269377031,354635.8022901198,99075.46992708967,67874.5010425281,1,1356,2120,1
-1433.5343557783274,-88.23374251690002,61.70712586479634,355915.6598814511,99589.32298454223,64813.7890058167,4,1441,2012,1
-1420.610325212339,-89.31014322552521,55.19706794642009,356900.6628211174,100239.00868159275,62072.638337519216,0,1575,1875,1
-1403.94618103981,-91.55137591273545,48.885011934978735,357571.53166677104,101034.89304882786,59707.62132407377,13,1607,1847,1
-1383.6090717110653,-94.92948577327834,42.840840214116746,357924.8943655213,101986.59721973604,57776.0254958185,16,1699,1767,1
-1359.7237682481868,-99.30506915347509,37.124604768809505,357975.6265032684,103101.26911803697,56333.039250746944,12,1721,1743,1
-1332.4475681986576,-104.412093135979,31.787092485415876,357757.89833445876,104381.91549089756,55428.98029183684,14,1766,1699,1
-1301.947160986381,-109.86377419283593,26.87289157811685,357323.85391497286,105826.38757635538,55107.62975791397,11,1779,1677,1
-1268.3781865257363,-115.18266474635205,22.42397998964861,356739.62184285175,107427.05292299141,55405.60403002319,10,1794,1651,1
-1231.8739464638647,-119.84320620510063,18.47983639132478,356080.0328874345,109171.0146686449,56352.49577657274,4,1845,1595,1
-1192.552218856072,-123.32208027788822,15.074627048927729,355422.8611800959,111041.10076796636,57971.814827548515,0,1860,1575,1
-1150.5383396949007,-125.1593306466143,12.23441901102393,354842.1928309661,113017.83714517907,60282.43989763044,0,1887,1555,1
-1105.9929435071826,-125.01302388543272,9.976032473098575,354402.27188386075,115081.8427291356,63299.717782204716,0,1915,1537,1
-1059.1336634575048,-122.68671152672049,8.308664784418227,354153.3916715838,117216.28083387943,67035.51195656793,0,1937,1517,1
-1010.2477554527425,-118.13190555538598,7.239232824993758,354129.42253304383,119409.55817014,71497.3092847051,0,2008,1453,1
-959.6966023326988,-111.43566306952914,6.7806547422412615,354346.86322510877,121657.5061417462,76686.91065829096,0,2008,1455,2
-907.9106840091508,-102.79547396651054,6.961328319069537,354806.0960367861,123963.88469196718,82599.2089540543,0,2011,1454,2
-855.3744949008498,-92.48289492115825,7.833579885735179,355494.56641158403,126339.11067290476,89221.3609603808,0,2010,1454,2
-802.6093505013041,-80.80812731650194,9.475962807735467,356390.34930217906,128797.86718842416,96532.4205358963,0,2013,1452,2
-750.1591620599723,-68.09343685896874,11.984306890028998,357465.253247561,131356.06118992082,104503.71648355921,0,2006,1456,2
-698.5747317236616,-54.64904582307388,15.45495677488125,358687.8524144265,134027.49595726296,113100.12461193044,0,2009,1453,2
-648.3975243059392,-40.75124405546076,19.97043533690301,360026.0893713255,136821.3204338709,122281.35112005382,0,2008,1452,2
-600.1452761075607,-26.630472864922375,25.591716611976274,361448.9192315624,139741.25242186963,132002.7056896146,0,2010,1451,2
-554.2975993761095,-12.472684126844996,32.35422651153423,362927.4966664522,142786.32474212183,142215.9669778569,0,2007,1454,2
-511.2864799295055,1.5686051188684011,40.266889320867215,364436.1536191289,145952.14560040427,152870.26282590136,0,2008,1455,2
-471.495609218543,15.356939983572543,49.316448188284426,365953.02618353005,149232.1723296092,163912.69776280204,0,2006,1454,2
-435.26408069537337,28.761246315085792,59.476428023869296,367460.4782936324,152619.00659500386,175289.1078722542,0,2006,1454,2
-402.8907131506511,41.651592724106344,70.71540112189356,368945.3540639312,156105.21800954928,186944.61061710952,0,2006,1454,2
-374.6363709330832,53.904044454838726,83.00090553714676,370399.04496750387,159683.1943972969,198823.79738338545,0,2007,1454,2
-350.72183384238406,65.4112627906598,96.30048175197274,371817.5573868124,163344.32674966005,210871.25821512067,0,2007,1452,2
-331.3240661091148,76.09120443606822,110.58197645747154,373201.5917451092,167078.09616911146,223032.21769216936,0,2007,1453,2
-316.5748270103551,85.89035511646806,125.81465991808494,374556.4049537308,170871.44355150312,235253.01311184064,0,2007,1454,2
-306.5607687342739,94.78385741492498,141.9714983716372,375891.29320925166,174708.52526850638,247481.87951095056,0,2008,1452,2
-301.3233733872484,102.77401690693358,159.0302450117767,377218.746280658,178570.63583125905,259669.59866461094,0,2008,1452,2
-300.8589381750429,109.88583995196888,176.97202987569074,378553.33626114705,182436.24756168376,271769.71620123775,0,2008,1453,2
-305.1186266490117,116.15918811701329,195.77901987708907,379910.3708131676,186281.35540396796,283739.0132685311,0,2006,1453,2
-314.0085064806736,121.63994105746224,215.43265266381374,381304.62494284107,190079.9721138381,295537.99663042324,0,2007,1454,2
-327.3903339147072,126.37175336209744,235.91327832675375,382749.461639664,193804.65687505348,307130.9822337011,0,2005,1458,2
-345.0837073686914,130.3878609223274,257.2011995870763,384256.2773983027,197427.23466584086,318486.187871969,0,2005,1457,2
-366.8689635787557,133.70470887436412,279.2771198393553,385834.1458657606,200919.43241986656,329575.6486374741,0,2005,1452,2
-392.4911357576755,136.32104943312902,302.120664483484,387489.6157100929,204253.16526105636,340374.7181129786,0,2005,1456,2
-421.665649599933,138.2229078134669,325.7078366295117,389226.5750559579,207400.69744021422,350861.6317797529,0,2006,1455,2
-454.0830533363226,139.39077460606018,350.00755907330336,391046.03868383897,210334.7216841872,361017.0910984374,0,2008,1453,2
-489.4114901611665,139.80596112053215,374.97598270259755,392945.71308111295,213028.34296959924,370823.7684539419,0,2007,1453,2
-527.299536041387,139.4556660229619,400.5482473025257,394919.3190261726,215455.21153683471,380266.13799611974,0,2008,1452,2
-567.3796744973494,138.33592671054745,426.62972653015447,396955.84847414884,217589.85680961233,389330.46415833494,0,2008,1454,2
-609.2731794015865,136.45105217418896,453.0901187342629,399038.9904975057,219408.31381561264,398004.77664945496,0,2008,1452,2
-652.5990275964714,133.80993987998835,479.76241262937816,401146.8179411836,220889.24711608043,406279.15816936677,0,2008,1454,2
-696.9834675540498,130.42132441066562,506.4454438817316,403251.68842484517,222015.2103626777,414146.0132990862,0,2008,1455,2
-742.0671786327988,126.28877310026846,532.9086590442869,405320.46701386874,222773.62885957424,421599.92542523675,0,2008,1454,2
-787.5126572114905,121.40489183190812,558.8989553836776,407315.2465294938,223157.5870117702,428637.40835926804,0,2008,1455,2
-833.0106340735823,115.74605281844146,584.1470480984283,409194.38252468355,223166.33006583474,435256.57071973267,0,2006,1455,2
-878.2833991167536,109.26902541495059,608.3727490915412,410913.8533040714,222805.20068996068,441456.5610574672,0,2008,1454,2
-923.087174320682,101.90875230408314,631.2921730239257,412429.21545905067,222085.08178266877,447237.02048854716,0,2004,1454,2
-967.213139032898,93.57690570563483,652.6258990642173,413697.6630080465,221021.70168113578,452597.54914050223,0,2004,1456,2
-1010.4862761124558,84.16181335760496,672.1078001966362,414679.7739901184,219634.96721620156,457537.0795002956,0,2005,1457,2
-1052.763743819421,73.53042917803772,689.4984010093133,415341.31028092525,217948.27633489948,462053.25802544586,0,2004,1455,2
-1093.931780284432,61.53318894691369,704.6003562580067,415654.9085413496,215987.90313186945,466141.8177221586,0,2004,1456,2
-1133.8997122616063,48.01252867969152,717.2682012869918,415601.1409443391,213782.2404429505,469795.93198027863,0,2005,1455,2
-1172.592980794958,32.81393211428924,727.4071542925248,415168.96996906213,211360.43384792694,473005.73246229,0,2006,1461,2
-1209.946716741529,15.795670924701978,734.9617915709817,414355.76254577097,208750.7944951049,475758.0440615052,0,2008,1455,2
-1245.899936359206,-3.165099851517936,739.9025827592029,413166.90641090705,205979.79387511036,478036.30695527734,0,2008,1453,2
-1280.39098729532,-24.168910962635994,742.218546008364,411615.1241539134,203071.84824999684,479820.6883828565,10,2008,1453,2
-1313.354566436146,-47.291486525671445,741.9176500766307,409719.71020226524,200049.72918642993,481088.2267532765,11,2008,1452,2
-1344.7205105658734,-72.58084342546691,739.0308289486346,407505.6920907209,196935.14206407737,481812.96847230097,9,2006,1453,2
-1374.4140660425683,-100.0535649991054,733.614533026957,405002.7456335647,193748.92832230317,481966.29214486305,10,2006,1452,3
-1402.3548946902802,-129.69061396634262,725.7502704474022,402244.1433976997,190510.931514887,481517.39947838185,8,2006,1454,3
-1428.4533192516385,-161.43278860142607,715.5426258624553,399265.83073178557,187239.91557565547,480433.8960569675,3,2007,1453,3
-1452.6062491275543,-195.17513056680113,703.1173057699692,396105.0589020769,183953.68729746842,478682.64725619677,0,2006,1454,3
-1474.6953228769892,-230.75977558060177,688.6203261220995,392798.56428781943,180669.4084697604,476230.94539704314,0,2007,1452,3
-1494.5894183513503,-267.96953263313003,672.2189044202295,389381.0765242556,177403.99335472114,473047.7118610975,0,2006,1451,3
-1512.1526800876102,-306.5258542348693,654.1034091044033,385884.3420815237,174174.26964576487,469104.6246141909,0,2006,1454,3
-1527.2545301427942,-346.09161928203065,634.4888174365974,382336.25603711104,170996.6921652405,464377.2945732687,0,2007,1455,3
-1539.7788522725946,-386.2785603204366,613.6127224957469,378760.3195466968,167886.83225548314,458846.47099973087,0,2009,1453,3
-1549.6333001694263,-426.65913887534657,591.7286251984476,375175.9449207431,164858.68785562625,452499.1404868836,0,2012,1451,3
-1556.7569329508892,-466.7766854465442,569.0978749542925,371599.5081095189,161923.6034447336,445329.50246214605,0,1992,1465,3
-1561.1242423034457,-506.14888777959305,545.9811158615789,368045.67437508056,159089.1488827154,437339.88569652993,0,1985,1471,3
-1562.7474849117439,-544.2675763698866,522.6270949472736,364528.7262214429,156358.2907687265,428541.45161851874,0,1988,1474,3
-1561.6783026665416,-580.5966776673297,499.2623254767429,361063.840618872,153728.653290849,418954.4870636826,0,1988,1472,3
-1558.0077175103368,-614.566971437742,476.0847661309489,357668.0822372821,151191.9671577374,408608.59001993237,0,1988,1468,3
-1551.864463084901,-645.5680755782068,453.25850959782014,354360.7827730633,148733.9461850783,397543.1038827332,0,1982,1475,3
-1543.4150342578118,-672.9432030605947,430.90856856440763,351163.16446215677,146334.58625281107,385807.72472826764,0,1965,1487,3
-1532.8684123344708,-696.0000758161407,409.1184287711554,348096.66199861746,143969.3979666908,373462.82375134854,0,1965,1490,3
-1520.478548672058,-714.0439451987537,387.932685404804,345179.61237598304,141612.16523118396,360579.0466225209,0,1968,1486,3
-1506.5357259935913,-726.4161161597717,367.3632452782444,342423.62249338336,139238.57479298176,347236.62646433094,0,1961,1496,3
-1491.3467573187652,-732.5258034302352,347.3929263849295,339830.96252425306,136829.89239253086,333524.61866293673,0,1964,1487,3
-1475.209116596484,-731.8845875850008,327.9760234956769,337393.10723619605,134376.6577260587,319539.56316442945,0,1965,1487,3
-1458.3913615818474,-724.1462980948406,309.04655332362677,335090.7145010419,131881.84027467665,305384.31765474397,0,1965,1488,3
-1441.1312201605579,-709.1429989963442,290.54472403429173,332895.46286599716,129362.33740601325,291167.5766584602,0,1965,1491,3
-1423.644214263182,-686.9079235681395,272.4538355553483,330773.0896039651,126848.2317881605,277002.9558066588,0,1964,1493,3
-1406.1290608451345,-657.6796885037829,254.82300014509906,328686.2755221476,124379.84696053172,263007.2842218108,0,1962,1490,3
-1388.766951677077,-621.8937507840621,237.76016838708242,326596.9492321307,122002.43512814144,249297.8215527328,0,1962,1491,3
-1371.7171059616821,-580.172208742035,221.40316197029475,324468.33838600025,119759.16688741308,235987.91998966224,0,1967,1482,3
-1355.1103111892419,-533.3167415336367,205.88897511903366,322266.4210747606,117685.618880737,223183.06255738146,0,1961,1493,3
-1339.0399502610458,-482.3014620323884,191.33224254310747,319960.37675485347,115808.23218152716,210978.68218424564,0,1982,1477,3
-1323.5488813411876,-428.2607462873212,177.81111989822773,317522.5495297985,114145.69564243406,199458.5284583278,6,1991,1466,3
-1308.6167570990822,-372.4746970942775,165.361852290336,314928.7075033691,112711.10382996903,188693.3392789747,121,1994,1467,3
-1294.156035535646,-316.34637755556554,153.98339356517377,312158.9990950874,111513.86125687417,178740.2386328547,375,1990,1470,3
-1280.019779664089,-261.35599078586665,143.6446782896109,309199.55939606467,110561.19449009156,169642.23883815834,977,1993,1465,3
-1266.019443277295,-208.9918841741966,134.2847730807842,306044.43725933234,109858.9108280345,161427.87818178063,1777,2011,1453,3
-1251.9522038121909,-160.64116027050463,125.79960846384722,302698.3123312922,109410.45611280578,154111.1103487848,2148,2010,1452,3
-1237.6352424556717,-117.41950613744797,118.0177020726177,299181.0369021804,109213.95285177135,147690.681670032,2328,2011,1454,3
-1222.9328474142685,-80.00157101187526,110.68709436478296,295533.6599896276,109258.7129556397,142149.05794026484,2534,2011,1452,3
-1207.770004210202,-48.54964032933452,103.51280017485229,291824.4757314862,109523.55318480488,137451.96267567208,2545,2012,1453,3
-1192.1508547189108,-22.7850760003777,96.25518789713016,288150.57185988215,109978.60653320634,133549.94635865258,2526,2011,1451,3
-1176.1890138653405,-2.171421798885067,88.83285758097455,284628.7811459185,110590.34406967445,130382.79489109026,2447,2011,1452,3
-1160.12173344077,13.901339068775039,81.35724427552056,281378.6192717351,111326.35235091399,127885.15445001464,2430,2011,1452,3
-1144.2780065494476,26.021255637300804,74.07538517305157,278505.46671072324,112156.41705657852,125991.3540277929,2323,2011,1451,3
-1129.007392847194,34.73437003043858,67.26005784209346,276088.24526103045,113050.61244354674,124639.11513759974,2298,2008,1455,3
-1114.6114042321854,40.55245152584998,61.12318163485131,274174.23083736206,113977.69767633722,123771.71818688897,2351,2011,1451,3
-1101.306032459931,43.96289647111408,55.7931441452979,272781.6665051146,114906.10917755129,123338.0482164432,2291,2010,1453,3
-1089.2092400786264,45.43215560793593,51.33333152757992,271906.2081206383,115807.21354955746,123291.20030020502,2337,2009,1452,0
-1078.3431417993495,45.40245016429223,47.76503127534207,271526.44445484225,116658.41464517223,123587.09609262182,2400,2010,1455,0
-1068.6501546562308,44.28000373053567,45.07892109534554,271607.1494786983,117444.34919611776,124184.17693887922,2470,2010,1453,0
-1060.021196094307,42.413812889613695,43.238618804637404,272101.8817247202,118156.53180224467,125044.1869850548,2555,2010,1451,0
-1052.3258452128423,40.074470615956706,42.18418003617876,272955.78236036585,118792.56263853016,126133.26226515486,2548,2010,1451,0
-1045.4353437169204,37.445942330241415,41.839179151978236,274108.641837814,119355.39836854766,127422.58576918047,2543,2010,1450,0
-1039.2385691488969,34.632687421293966,42.120528652863605,275499.04401532427,119852.33075215673,128888.21390692751,2565,2011,1451,0
-1033.6512606290485,31.67478994392532,42.94632665745423,277069.28274812107,120293.2563034818,130509.9763378833,2599,2020,1453,0
-1028.6166724607879,28.565947129720627,44.23883095768215,278769.24205003906,120688.68941472044,132269.9806181748,2599,2026,1453,0
-1024.0984098850033,25.275095053867265,45.924022712879996,280558.32472145325,121048.16858927708,134151.46834165283,2612,2024,1451,0
-1020.0688736881602,21.768604781385953,47.92935619253134,282405.8933220107,121379.15536653246,136138.18040390997,2627,2036,1452,0
-1016.4989721728334,18.025449236163936,50.18094230256849,284290.70070855366,121686.49544811659,138214.07243029587,2642,2036,1453,0
-1013.3528693586829,14.04332487693285,52.6026851765425,286199.3657059754,121972.63590077218,140363.3625549766,2624,2043,1455,0
-1010.5872674871907,9.839413558707873,55.11900762432064,288124.0827821948,122238.4851883411,142570.8714200533,2612,2044,1455,0
-1008.1540401059593,5.448944413773157,57.659574960112366,290060.28808927455,122484.42879864249,144822.36466219518,2599,2058,1451,0
-1006.00601052675,0.9221814328902442,60.16330186637212,292004.8017370196,122711.1058231399,147104.67525635453,2548,2045,1455,0
-1004.1040780503547,-3.6797956299477095,62.58061271417156,293954.34508888214,122919.89290800005,149405.6701335832,2465,2057,1450,0
-1002.4215378242959,-8.289135056029117,64.8736468851437,295904.5187693268,123113.04225329896,151714.0966959647,2376,2068,1451,0
-1000.9427908956756,-12.83566997123265,67.0137904850391,297849.52659594116,123293.3646719499,154019.33596804435,2314,2077,1452,0
-999.6578693800001,-17.253154348152442,68.97697121915782,299782.49198473955,123463.56899097463,156311.1875703894,2210,2080,1450,0
-998.5570378612236,-21.484963158230734,70.73894536810582,301695.86575510126,123625.63090564136,158579.717408322,2054,2076,1452,0
-997.6285260595031,-25.486325029045812,72.27279144298562,303581.7023643142,123780.52249978948,160815.2108408089,1955,2079,1455,0
-996.8591273471526,-29.223541080236213,73.54913808932444,305431.9601006707,123928.30672370295,163008.30138996567,1837,2078,1451,0
-996.235951984911,-32.672234493804005,74.53873036038935,307238.821951554,124068.38249339978,165150.1210015317,1692,2074,1452,0
-995.7480391434856,-35.81621793563604,75.21715295297807,308994.9492864686,124199.70118148938,167232.35414991825,1542,2076,1452,0
-995.387107380032,-38.64727869342436,75.57049791438028,310693.71383252554,124320.89628972493,169247.2988901671,1401,2087,1451,0
-995.1472985757753,-41.16498806666771,75.59856766068275,312329.31326095277,124430.31548277361,171187.92395359965,1332,2089,1454,0
-995.0241982710972,-43.37577370751439,75.31311250191143,313896.69705026,124525.97888781816,173047.88630047333,1282,2086,1455,0
-995.0134282802265,-45.29145591436191,74.73291020172712,315391.4455822877,124605.54809114462,174821.59992769116,1139,2097,1453,0
-995.1093214023605,-46.927942802073034,73.87970179649882,316809.66892310476,124666.37962197822,176504.30689275442,962,2087,1453,0
-995.3043620654653,-48.30421583049337,72.77666689705588,318147.8983603492,124705.70402265374,178092.0701735421,920,2105,1456,0
-995.5894745008576,-49.441240933104226,71.44855041227952,319403.0041133472,124720.91583071493,179581.74656133444,888,2117,1454,0
-995.9546780817552,-50.36112259381425,69.92247182439458,320572.144680175,124709.84612799298,180970.9360154504,722,2133,1456,0
-996.3898305645955,-51.08742020101515,68.22863516079154,321652.7515498025,124670.89751169339,182257.90205354613,691,2124,1455,0
-996.8855014534951,-51.64654158598648,66.40010375968589,322642.5798639522,124603.04804226111,183441.5477863341,597,2126,1457,0
-997.4337633686474,-52.068776100100735,64.47139241120671,323539.7742595786,124505.78378909094,184521.43625728087,585,2163,1456,0
-998.0284749576572,-52.38778337402096,62.47611091547444,324342.9489600874,124378.99721631789,185497.80377863484,492,2185,1465,0
-998.6649900806302,-52.638839235519434,60.44442838522143,325051.36450184847,124222.8763632476,186371.5834784123,457,2179,1466,0
-999.3396293001916,-52.85692952931154,58.402105112475006,325665.12945688877,124037.83662333761,187144.4027120092,389,2213,1634,0
-1000.0493163497057,-53.07493884730631,56.37218340618537,326185.28064316313,123824.53467524813,187818.5086619028,349,2234,1631,0
-1000.7915276679662,-53.32167250908948,54.37775199077242,326613.71859022434,123583.9277137416,188396.66415590057,362,2233,1634,0
-1001.5642343675131,-53.62037432978941,52.443154806941536,326953.0514340004,123317.30568882395,188882.05284701672,331,2235,1635,0
-1002.3652615258867,-53.988845316772185,50.59278234726682,327206.4168930923,123026.25695896606,189278.1986086164,276,2265,1633,0
-1003.1910653030212,-54.44138588917419,48.84851143216071,327377.3375588373,122712.60222765821,189588.90549990296,227,2268,1641,0
-1004.0356647876499,-54.99155354563401,47.227743033872116,327469.6357913425,122378.38642013459,189818.2123590674,231,2281,1631,0
-1004.8902783288836,-55.654554532098764,45.743466122611785,327487.43534860155,122025.96698810496,189970.35042390964,175,2250,1654,0
-1005.7436522856304,-56.4487040795046,44.40596895400226,327435.258756117,121658.1417136507,190049.7017270714,172,2273,1662,0
-1006.5829903279821,-57.395523401552744,43.22458834646422,327318.171034198,121278.22061725591,190060.7536155463,155,2274,1663,1
-1007.3956462501392,-58.518014348100095,42.20816920660294,327141.89550290623,120889.93289841998,190008.03392201735,130,2279,1667,1
-1008.1712347825821,-59.83725455035151,41.36409837962606,326912.85584008426,120497.12885091337,189896.02185773142,102,2255,1679,1
-1008.9030115713205,-61.3689283688373,40.69664733974073,326638.13213083433,120103.427798731,189729.0615792928,104,2210,1700,1
-1009.5882298785185,-63.1218511578215,40.20538539657936,326325.3259895584,119711.98440474113,189511.28897895577,39,2237,1711,1
-1010.2283991403131,-65.09863090583737,39.884586402047404,325982.35690796893,119325.38292347705,189246.5522476095,13,2234,1705,1
-1010.8297672396577,-67.29688558212406,39.72424493298165,325617.2585197754,118945.63060678386,188938.3398182105,32,2248,1712,1
-1011.4031425519814,-69.70985079768589,39.71223450893,325237.95929174713,118574.22998986949,188589.73313349372,3,2262,1715,1
-1011.962371687927,-72.32651209994532,39.83684667625123,324851.98503126047,118212.26683324503,188203.37251815214,28,2285,1708,1
-1012.522260636636,-75.13178544365746,40.089003752798845,324466.1797002181,117860.46844785225,187781.44536560102,27,2335,1711,1
-1013.0974091783793,-78.10709624997722,40.46377265742569,324086.5429837479,117519.23007613282,187325.7040137574,0,2314,1734,1
-1013.70239730357,-81.23146732169627,40.961489516398906,323718.12672391045,117188.6208843843,186837.495234977,0,2336,1739,1
-1014.3525841849164,-84.48257059409353,41.588576307232636,323364.94913030934,116868.39289563331,186317.7981636794,3,2303,1759,1
-1015.0647266385683,-87.83718483196952,42.357875344506816,323029.93082206545,116558.0110942559,185767.2586953264,0,2312,1786,1
-1015.8572396821451,-91.2712246550649,43.28858052056826,322714.83685344283,116256.70544838127,185186.19603266416,0,2337,1767,1
-1016.7503633201093,-94.75966715987899,44.405775945061016,322420.24380997213,115963.53254900295,184574.59504257023,0,2336,1762,1
-1017.7665395039596,-98.27638130479052,45.73965824569644,322145.55360938,115677.42054389279,183932.1032990978,0,2337,1777,1
-1018.9309681167339,-101.79369140063939,47.32469160085186,321889.02551448,115397.18117742571,183258.0253059532,0,2299,1794,1
-1020.2720024306913,-105.28180083718188,49.19843476616509,321647.79205035727,115121.4819354279,182551.28985045163,0,2325,1796,1
-1021.8211643999337,-108.70855059360498,51.39959105496504,321417.8589694178,114848.7799448416,181810.37708000277,0,2314,1799,1
-1023.6128540374061,-112.03963942778336,53.965835706433,321194.12524798024,114577.26310312377,181033.25615608148,0,2343,1795,1
-1025.6848706955852,-115.24018278895974,56.92980609810683,320970.4754958623,114304.80699401679,180217.359093288,0,2325,1837,1
-1028.0815728980097,-118.27966590367211,60.30810640733471,320739.9657821214,114028.86906383501,179359.53733708736,0,2324,1838,1
-1030.856950648045,-121.13774098660781,64.08635984422688,320495.18034115754,113746.22140446649,178456.03562549996,0,2308,1836,1
-1034.0708531435569,-123.80436822383062,68.21420260342852,320229.00966721703,113452.63629487203,177502.55337279625,0,2294,1868,1
-1037.7796860878095,-126.27540263710223,72.61539067997579,319935.8123577006,113143.08468488538,176494.30909536578,0,2304,1854,1
-1042.0307772924623,-128.5495734502714,77.2036982490478,319612.29061935534,112812.68070977616,175426.0488453384,0,2323,1881,1
-1046.8637057775763,-130.62618779996046,81.89677723210208,319257.52482832863,112457.65702683154,174292.0652600266,0,2247,1943,1
-1052.3142331894546,-132.5018457237199,86.62565224252232,318872.4164504566,112075.70305563833,173086.21497653934,0,2187,1991,1
-1058.416799035384,-134.1696476453275,91.33741764168835,318459.1967516497,111665.70579653175,171801.91829554806,0,2134,2041,1
-1065.2053709972272,-135.62268907962806,95.99167329893102,318021.31950985553,111227.19384145654,170432.2251039996,0,2195,1985,1
-1072.7137138465196,-136.8582424546223,100.55507505607572,317563.5741904501,110759.80183485625,168969.966746239,0,2139,2029,1
-1080.975042881691,-137.87870457879765,104.99739614161435,317092.17756573716,110263.07933015413,167407.91757544866,0,2081,1954,1
-1090.0211082417063,-138.68977879485467,109.29001744058912,316614.79544522596,109736.72732974972,165738.91709930805,0,2159,2077,1
-1099.8812653496063,-139.29882333789087,113.40623743680246,316140.5573484636,109181.00251639106,163955.99145804846,0,2108,2105,1
-1110.581899631392,-139.71442245650138,117.32243064539799,315680.0638423623,108596.99045723423,162052.5017405659,0,2086,2005,1
-1122.1459181489554,-139.9463085867482,121.01914978915148,315245.3443040743,107986.65540373433,160022.2866794807,0,1995,2028,1
-1134.5917001175835,-140.00492421733108,124.48123954419043,314849.7973158279,107352.75081679279,157859.81497445703,0,1967,2028,1
-1147.9318495857262,-139.9002197867404,127.69663132396852,314508.141791931,106698.66492098589,155560.32813144248,0,1910,2101,1
-1162.172161482682,-139.63931065766508,130.6544382964083,314236.32884963905,106028.20446309668,153119.90000459418,0,1890,2132,1
-1177.3099550400752,-139.22375436902757,133.34317005363405,314051.3925516135,105345.3902589436,150535.46726862082,0,1909,2133,1
-1193.3314120650225,-138.648080193815,135.74944430415016,313971.20992015034,104654.34664306404,147804.85369488152,0,1745,2223,1
-1210.2091793382294,-137.90013309663158,137.85745254693265,314014.11578171205,103959.26568467733,144926.7232732384,0,1660,2265,1
-1227.9009612722796,-136.9624165956232,139.6491826511213,314198.4407983926,103264.42541007168,141900.5725210759,0,1600,2325,1
-1246.3483859211963,-135.8136337455915,141.10469217235396,314542.0172842187,102574.21335196211,138726.81989916248,0,1479,2376,1
-1265.4754439910905,-134.43041643759065,142.20183380242423,315061.61893169634,101893.06921593836,135406.86592185957,0,1421,2372,1
-1285.1859914143201,-132.7890733555943,142.9155309649777,315772.45015795995,101225.36868970266,131943.17471088454,0,1319,2378,1
-1305.3603721978272,-130.86678575098583,143.21699661283378,316687.7867169864,100575.30744542582,128339.46431771213,2,1217,2430,1
-1325.8523605908783,-128.6423630805012,143.0733692403416,317818.6931387311,99946.79072922522,124600.94458141539,3,1161,2468,1
-1346.4872249979762,-126.09737994476065,142.44793296447347,319173.7357183579,99343.37705032574,120734.62228986695,0,1079,2464,1
-1367.0606774179205,-123.21847521278227,141.30054045586638,320758.6358093641,98768.31939812473,116749.6830315499,0,1053,2497,1
-1387.3379962552972,-120.00040202407295,139.58795201657492,322575.84288051364,98224.67560235059,112657.82966435747,0,1014,2502,1
-1407.0530986087974,-116.4485192400898,137.26467502514916,324624.0917148112,97715.49513336597,108473.39149512268,0,902,2542,1
-1425.90860307895,-112.58055116613545,134.28535713682976,326898.0121379662,97244.10789351049,104213.15011003216,0,781,2590,1
-1443.577422028767,-108.4279488919271,130.60909079892903,329387.7730877872,96814.45197032248,99896.1840643626,0,791,2591,1
-1459.7068839420856,-104.03597912866634,126.20645496510666,332078.66943834897,96431.37285378996,95543.88885958427,0,760,2612,1
-1473.9270084360262,-99.46190458935486,121.07005171011913,334950.59072795435,96100.88996214521,91179.983292899,0,737,2623,1
-1485.8606657909663,-94.77206304152227,115.22539688363085,337977.37056637765,95830.35675643888,86830.57960676163,0,751,2623,1
-1495.1330216825568,-90.03871664687524,108.7373323762546,341126.03091164154,95628.3027680688,82524.47257054351,0,759,2605,1
-1501.3804272090333,-85.3378090307688,101.71029381019906,344356.00066653313,95503.85643250903,78293.53269608054,9,789,2581,1
-1504.2577491725333,-80.75054668005966,94.28296861952448,347618.5291774212,95466.02645242713,74173.17982634861,11,848,2524,1
-1503.4470424599685,-76.37103731325041,86.61627850637379,350856.82608540205,95523.23550272558,70202.97213583662,5,918,2464,1
-1498.6737287805593,-72.31637919208069,78.87499253822122,354007.3596730299,95683.2379369398,66427.2283918882,11,1024,2363,1
-1489.7268674111028,-68.73169658950647,71.21068968068859,357002.0286793389,95953.33888005762,62895.574451389206,8,1131,2251,1
-1476.4751003790423,-65.78534327176563,63.75266405172959,359771.47210622625,96340.7673150564,59662.99302023658,10,1297,2131,1
-1458.8767893971249,-63.65463165697778,56.604063926795,362250.11880771175,96853.02045394637,56788.92558222324,0,1484,1963,1
-1436.985067744514,-62.50703322389477,49.840345539315315,364381.6192393063,97497.9617758129,54335.696687667354,0,1579,1843,1
-1410.944468626524,-62.47797890650957,43.51185381933015,366123.4395986831,98283.50851232136,52366.358872428864,0,1656,1772,1
-1380.9772581468674,-63.64224059371141,37.650701054641424,367451.1244922733,99216.9626882603,50941.67988427182,0,1722,1740,1
-1347.3646778639447,-65.98518663448117,32.27940173871384,368361.62013230845,100304.23877447617,50117.099841447336,8,1784,1666,1
-1310.425568159011,-69.38371136249545,27.420211586313492,368874.3301256707,101549.03758486327,49940.5405394019,4,1819,1633,1
-1270.490520554968,-73.5993204824006,23.103143399368047,369030.0159258783,102951.78109556956,50450.79427804174,5,1821,1620,1
-1227.879217978727,-78.28443025575842,19.36910650106716,368888.3513271079,104508.38125888053,51676.4973923532,1,1884,1587,1
-1182.8893286328564,-83.00751343555068,16.26695810886376,368523.8341267596,106209.09046628026,53636.23484600732,1,1867,1596,1
-1135.7954671279506,-87.2984622840204,13.84358801961,368019.44123779744,108037.64812126948,56339.72074507761,0,1869,1573,1
-1086.8559904710435,-90.70038691958835,12.129959040387892,367459.620788412,109971.17885158173,59789.26252259363,0,1901,1547,1
-1036.3257888384267,-92.81747520838412,11.131408180905542,366924.0316290895,111981.78199418302,63981.01576154494,0,1916,1537,1
-984.4713195058373,-93.3582706335595,10.825509697489732,366481.42406525626,114040.21954756363,68906.09394311524,0,1928,1522,2
-931.5848825047566,-92.16264061823196,11.165276768871685,366184.53427673783,116120.30137291503,74551.21496408425,6,2013,1454,2
-877.9954956364428,-89.20037926206939,12.089045002669671,366067.71426685917,118202.59311780776,80898.60277980803,5,2012,1452,2
-824.0743371236525,-84.54791827223129,13.539443120007029,366147.00022405066,120277.36912691189,87925.5265739934,0,2011,1456,2
-770.2353140491301,-78.35947427219509,15.484955727034434,366421.52180933434,122346.07030301273,95603.83646608653,0,2013,1452,2
-716.9301816811578,-70.84007597907728,17.93202612120892,366876.04099827335,124419.86971667313,103899.95138790485,0,2013,1452,2
-664.6370411727795,-62.218513322225334,20.921439291667657,367484.6567252575,126515.4746764692,112775.70858923323,0,2012,1452,2
-613.8465245502939,-52.72411676127033,24.513214533795434,368214.66493311233,128650.31892569532,122189.44654939463,0,2010,1451,2
-565.045673161283,-42.57068051718375,28.768929944019153,369029.86483862856,130839.08267061388,132096.81160957558,0,2010,1453,2
-518.6953498394283,-31.943613362454887,33.73560453302563,369893.6901004215,133091.73668454902,142451.63919757112,0,2010,1451,2
-475.2095303202564,-20.992120010989446,39.43391106925674,370771.8054266973,135412.87257748932,153206.66181248726,0,2011,1454,2
-434.9460966494125,-9.833255345479735,45.85597208500639,371633.6851280847,137802.42798795807,164313.8813934271,0,2010,1450,2
-398.20664855518964,1.432207686091693,52.97298921336415,372453.59688087256,140257.50831559213,175725.13740801462,0,2009,1451,2
-365.24140058170167,12.702016552840602,60.74554447662218,373211.12458171975,142774.21750286332,187392.51679775503,4,2010,1453,2
-336.25695787492845,23.864226927135647,69.12975102637832,373891.061445936,145348.67903562737,199268.21358734212,7,2010,1451,2
-311.42377015848683,34.80067776277107,78.07869884978918,374482.94574927015,147977.42478855213,211304.36806708726,0,2010,1452,2
-290.8812107390078,45.39500163423485,87.54227039820806,374980.6752271699,150657.41910045728,223452.90561859435,0,2009,1452,2
-274.7394268568212,55.538809007603135,97.46866966422782,375382.36030447937,153385.80009465155,235665.41732776002,0,2009,1455,2
-263.07921651899466,65.13611086856258,107.80865255737179,375690.28558589704,156159.54860877697,247893.65006566004,0,2010,1451,2
-255.95192972934225,74.10710021609911,118.51956415797255,375910.7769294676,158975.1505390161,260090.15364583276,0,2009,1453,2
-253.37830582859942,82.3903219112213,129.56695727196987,376053.78036773385,161828.1921413485,272208.6555756396,0,2008,1452,2
-255.34579428658895,89.94288628351245,140.92435013256733,376132.08149709814,164712.92562008023,284204.72408141184,0,2008,1454,2
-261.8068983936621,96.73860576238451,152.57182679711073,376160.4038598383,167621.88330772094,296036.47247785924,0,2009,1452,2
-272.67895972596045,102.76372923492372,164.4941152684058,376154.57835600566,170545.69985384564,307664.91487078805,0,2009,1452,2
-287.8435595098886,108.0115519978383,176.67908492903769,376130.7333093952,173473.25717831473,319054.39631930727,0,2009,1453,2
-307.14535384445213,112.47832794246874,189.118045621244,376104.5972417085,176391.96931300327,330172.777316118,0,2009,1453,2
-330.39150619879734,116.16173087336728,201.80892192926433,376090.9102653921,179288.11883703835,340991.01827546326,0,2008,1452,2
-357.35243327661,119.06126349543591,214.7596936460355,376102.6633892199,182147.33122315657,351482.7585162917,0,2009,1452,2
-387.7655521207584,121.1795301461063,227.9873767542957,376150.18539255986,184954.9409371492,361624.03068301716,0,2009,1452,2
-421.34297418780665,122.52379758532648,241.51220863741545,376240.2840558435,187696.0796597234,371393.07342785754,0,2009,1452,2
-457.7790918867239,123.1069060015771,255.35107748743124,376375.46891840006,190355.73247590507,380770.5565563002,0,2008,1453,2
-496.7557488677636,122.94604258036786,269.512829593525,376553.3610066078,192918.8518940336,389739.82545336464,0,2008,1453,2
-537.9479104808204,122.05954905219166,283.994755252227,376766.38159162924,195370.5188415516,398286.8441538501,0,2006,1455,2
-581.0292995122429,120.46402234802163,298.77879255614835,377001.6193110239,197696.2456809358,406400.25504986575,0,2008,1455,2
-625.6765936062594,118.17320413094173,313.8272760122556,377240.8360586822,199882.29696107216,414071.44322472246,0,2007,1454,2
-671.574128042989,115.19810688512767,329.0794257908729,377460.7334218677,201915.9813057589,421294.33424113906,0,2008,1455,2
-718.4176866249602,111.54707502913564,344.4497373641823,377633.52711933263,203786.09446525446,428065.1819322828,0,2007,1456,2
-765.9161225300611,107.22417220220201,359.82873989661806,377727.6605342975,205483.39625094176,434382.2896324631,0,2008,1455,2
-813.7934712720671,102.22513002811444,375.08666372876013,377708.7089083556,207000.9451812135,440245.5339746861,0,2009,1455,2
-861.7909619238114,96.53249118077645,390.0792367674392,377540.7245225781,208334.35697446813,445655.9252257708,0,2008,1453,2
-909.6678207963956,90.11182241946415,404.6534548143389,377187.7922953975,209481.90072796636,450615.1784885998,0,2008,1453,2
-957.2026231141888,82.90976481948319,418.6539853248858,376615.55285267334,210444.2273180764,455125.1663190812,0,2008,1454,2
-1004.193651015608,74.85477218767616,431.9316825221109,375792.8057710404,211223.75386305893,459187.3709809574,0,2008,1454,2
-1050.456390874414,65.86080337334536,444.35110019057635,374692.9488210533,211823.92931051023,462802.34955744405,0,2008,1452,2
-1095.8200341011616,55.832845476696995,455.79432904124,373294.9840259164,212248.4917319386,465969.2039483557,0,2009,1452,2
-1140.1236906911606,44.67214381193221,466.16295438309066,371584.2720765652,212500.68549943293,468685.1962576698,0,2008,1453,2
-1183.2127273580609,32.27940466934033,475.3788686791083,369553.10744761,212582.5805512707,470945.5111839933,0,2008,1455,2
-1224.93697869254,18.55615233503939,483.3822597821935,367200.9970963379,212494.6669595939,472743.0971611357,0,2007,1453,2
-1265.1499677052057,3.40531909477014,490.126590986273,364534.7118378426,212235.6798737641,474068.61191662756,0,2008,1454,2
-1303.7082710477187,-13.269058009339771,495.5729424211798,361568.36164368404,211802.58892741217,474910.4261714914,0,2009,1453,2
-1340.4722116701064,-31.563374304169482,499.68641522929295,358323.614293781,211190.7725560316,475254.6715509816,0,2009,1453,3
-1375.3062629130511,-51.574905143660004,502.4353569390279,354829.9596869955,210394.36825679152,475085.42490098067,0,2004,1457,3
-1408.0770920913885,-73.39727445035228,503.7924517018702,351124.92564625264,209406.71937853057,474384.9820393434,0,2006,1455,3
-1438.650598158766,-97.11020087087134,503.73695913743524,347253.9591490451,208220.92058693417,473134.1175190415,0,2008,1455,3
-1466.8890834830825,-122.76726444394245,502.2580940103964,343269.6557091184,206830.52215631554,471312.3578631597,0,2010,1452,3
-1492.6495794261043,-150.38523905927332,499.3587609643066,339230.60839224345,205230.25976106373,468898.32951126737,0,2006,1457,3
-1515.7852430220878,-179.93538199451692,495.05826732210716,335199.95505911176,203416.61945651195,465870.23147625936,0,2007,1453,3
-1536.1494134458223,-211.33705271697085,489.3932633471976,331243.3256331877,201388.2344984903,462206.4604261647,0,1992,1467,3
-1553.602332514367,-244.4553412128812,482.41758848528093,327426.76998041524,199146.17935941368,457886.334933442,0,1983,1478,3
-1568.0213497727616,-279.10182641677835,474.2030774099342,323815.10001137876,196694.14078641246,452890.831135587,0,1976,1486,3
-1579.3105444676637,-315.0341828199307,464.8422647574276,320470.13699709147,194038.4471382848,447203.31379597564,0,1966,1491,3
-1587.4066971645402,-351.9526943268787,454.45135300098383,317448.9858302941,191188.02972260636,440810.3522935114,0,1971,1485,3
-1592.2847903371814,-389.4957625212171,443.1707860115286,314802.5825288487,188154.18804326485,433702.6620062573,0,1966,1492,3
-1593.963947836531,-427.2356922721162,431.16254656067383,312574.09900769993,184949.9560589444,425876.1126847083,0,1965,1492,3
-1592.510230142925,-464.6753680819392,418.60453620664737,310797.3497136495,181589.38922729727,417332.81719521864,0,1958,1497,3
-1588.0346879075662,-501.2473054301872,405.68211056773293,309495.35974065645,178087.1329796461,408082.2761396799,0,1962,1494,3
-1580.6892569938632,-536.3151033722813,392.5780447470886,308678.66445538745,174458.18557563017,398142.50982193917,0,1957,1497,3
-1570.6638051296725,-569.1804185654034,379.4611446410791,308343.5710727291,170717.95790616766,387541.27892934025,0,1968,1489,3
-1558.1843381045128,-599.1006165587993,366.4744702544433,308470.93908755854,166883.04941103436,376317.209329563,0,1946,1505,3
-1543.5102767650376,-625.3145705654423,353.7288659253646,309025.5076607614,162972.86157770408,364520.40633309534,0,1947,1509,3
-1526.929404564753,-647.0759607799888,341.3075910215456,309955.9749287426,159011.47436137713,352212.8075347153,0,1946,1507,3
-1508.7521442265884,-663.6948093660717,329.2844232101604,311196.56565678085,155028.61586476368,339468.3302533824,0,1944,1506,3
-1489.3076327039048,-674.5709534318042,317.7461646582828,312670.1538021567,151058.9267331532,326372.19163048617,0,1945,1506,3
-1468.937217631182,-679.2078326913254,306.79868879583836,314291.70452474,147139.89626999645,313019.57185819617,0,1943,1507,3
-1447.9812089213542,-677.221766307412,296.5491319528709,315971.2449391123,143308.98767204865,299513.59659083013,0,1943,1511,3
-1426.7650523329005,-668.361496855095,287.0795510408134,317616.61745697784,139600.32936164355,285962.2032251728,0,1947,1504,3
-1405.5899809612347,-652.5378405239683,278.42596341576484,319136.3718582348,136042.41956614878,272475.2529221854,0,1947,1504,3
-1384.726014288839,-629.8579116640565,270.5646546004585,320443.01348017406,132657.94657290602,259163.10397261934,0,1953,1500,3
-1364.4069732727241,-600.6501614962541,263.40732732763496,321456.07780238724,129465.04737144489,246135.72586473852,0,1955,1498,3
-1344.8272265799299,-565.4622261073531,256.8092743672839,322104.71690847666,126479.15913479845,233500.62988452014,0,1952,1498,3
-1326.1374943085618,-525.0284077337656,250.59017816670314,322330.4213652084,123715.04692452855,221358.84320790286,0,1953,1499,3
-1308.4413815953403,-480.22528397569295,244.55910524604275,322089.6119909742,121188.20943404533,209800.75982053214,0,1970,1488,3
-1291.7959704299476,-432.0303666024692,238.5347617498759,321355.21879530465,118914.7942438765,198903.7358283924,0,1969,1485,3
-1276.2144660881581,-381.4832116065496,232.35764848788904,320117.140520986,116910.0267349436,188730.9279348385,0,1972,1482,3
-1261.6665213867798,-329.6557099541641,225.89369782469606,318381.84452332766,115186.24977200326,179331.08359511872,18,1970,1487,3
-1248.0744018257299,-277.6401350538187,219.03471420977567,316171.17453691567,113751.57971134981,170739.4244088688,165,1966,1487,3
-1235.3078768155028,-226.55083628480133,211.70433542861687,313520.4477393307,112609.33882266152,162978.89742183883,495,1966,1488,3
-1223.1845612663772,-177.5271753107303,203.86782352695388,310476.30498093646,111758.17573719256,156061.26563490232,981,1965,1489,3
-1211.4829645844663,-131.70501515699644,195.53080055943434,307094.5048588762,111192.48314301136,149987.80895840353,1476,1976,1479,3
-1199.9703196257597,-90.12990694009248,186.7174049225981,303437.79057443136,110902.33918130348,144749.37858995557,1807,1976,1481,3
-1188.4353963444423,-53.63930486725414,177.43981095254304,299575.1513358198,110872.54851427433,140326.0210096853,1953,1976,1479,3
-1176.716787888378,-22.756906348316203,167.68522866452025,295583.99009022204,111081.01413651164,136686.35702676632,1967,1973,1484,3
-1164.7290273745853,2.3775827637692077,157.44000832177088,291554.75292086176,111498.0282644356,133787.11941610771,2064,2010,1450,3
-1152.4856166165198,22.010041261682012,146.7449863180922,287594.44972793845,112088.58677659908,131574.1465668515,2074,2009,1453,3
-1140.1070009363239,36.67511344246205,135.75052869726503,283823.0739701851,112816.69053693175,129985.29255251908,2013,2008,1456,3
-1127.7984924475159,47.03554182239172,124.7241474682045,280359.95615491935,113648.24775324886,128954.61479438846,1992,2010,1455,3
-1115.7983861209975,53.75233706350797,113.98701457455056,277306.2734017959,114551.34592953176,128417.14136468756,1990,2013,1453,3
-1104.3244642032853,57.435565220109275,103.8281735760935,274734.17700687784,115495.29234382365,128312.61524495759,1850,2010,1451,0
-1093.5442529259042,58.641652199302975,94.46184034840505,272686.35455091024,116450.5625733551,128586.78167858743,1815,2011,1454,0
-1083.5673949443603,57.87772953217072,86.0310287572323,271181.87122986285,117390.60307952642,129190.70744190618,1855,2010,1454,0
-1074.450021740787,55.60434726733573,78.62615533447145,270222.20248576114,118294.12328983787,130079.50207876922,1964,2011,1450,0
-1066.2042476968984,52.23805155566092,72.2967153469031,269794.66430830635,119145.92618692972,131211.36259450117,2010,2018,1452,0
-1058.807377682053,48.15287120858767,67.04950337225681,269874.2425158951,119935.89316014021,132547.2085655135,2038,2018,1453,0
-1052.2085621077813,43.6773974883263,62.84054360839591,270425.1254465735,120657.29363564182,134050.83911807986,2054,2020,1452,0
-1046.3352062270706,39.086935542759825,59.57481285086266,271402.52137877274,121305.80598182994,135689.5594587929,2103,2021,1453,0
-1041.1020355584792,34.59448673339396,57.12107509882123,272755.1676106906,121879.70058399318,137435.09696604533,2146,2044,1452,0
-1036.421198753176,30.346233651994247,55.33350621513227,274428.006353953,122380.52647833299,139264.20952146561,2173,2030,1451,0
-1032.211805215252,26.424976791797075,54.06783143058358,276364.6876536713,122813.19372846503,141158.39819442455,2219,2025,1452,0
-1028.40994609988,22.86044697736056,53.19018451520363,278510.3691235992,123184.94283131666,143102.7942042194,2267,2025,1453,0
-1024.9754530882153,19.642672696269265,52.58264107430032,280814.3430437434,123503.78564130589,145084.83687497448,2315,2027,1453,0
-1021.887830645854,16.736533686612656,52.14731489667364,283231.70335399394,123777.18274942445,147093.26951701636,2353,2026,1454,0
-1019.1326827679591,14.096283105635145,51.807797148900185,285724.2023885786,124011.09446280944,149117.5642697241,2394,2026,1453,0
-1016.6899523930382,11.675305113543155,51.50654016605251,288260.39945213037,124209.41700803305,151147.6844393525,2409,2037,1453,0
-1014.5310062043209,9.429657401638352,51.20062560190435,290814.9554992964,124374.02738208401,153174.12219224512,2396,2043,1455,0
-1012.6215304913121,7.320267890241401,50.859356888365504,293367.31946515857,124505.46433937403,155188.11884608655,2385,2041,1451,0
-1010.925170076621,5.316525799527826,50.464515472734604,295900.3403619805,124603.86880078986,157181.84320410027,2357,2038,1454,0
-1009.4069399893489,3.39918664617473,50.01201557913842,298399.1472691613,124669.79506054582,159148.4227436752,2290,2045,1455,0
-1008.0373544236347,1.5602680069158237,49.51257826523259,300850.2787334526,124704.77930941754,161081.92423666306,2254,2042,1453,0
-1006.7961153315899,-0.1996581962250752,48.9896450552684,303241.0397968222,124711.58282846375,162977.26606460937,2169,2037,1454,0
-1005.6729702299174,-1.8750613042507724,48.473792770506925,305559.2482179523,124694.02254709188,164830.00681363087,2133,2032,1457,0
-1004.6653016925261,-3.459239016587034,47.99455547602501,307793.43167214433,124656.4952234656,166636.0887863853,2070,2034,1452,0
-1003.7745394150348,-4.947560446584494,47.57338294998948,309933.2254963943,124603.45408875597,168391.59690347404,2001,2036,1452,0
-1003.0036716510976,-6.339095234819666,47.22055484110301,311969.7789426613,124538.98043498886,170092.5817089795,1866,2060,1450,0
-1002.3563513139891,-7.636830348382996,46.93485477316972,313896.19366959605,124466.41009379104,171735.00356470334,1701,2053,1453,0
-1001.8369536047459,-8.847237823017558,46.704061059342266,315707.8412287557,124388.04584719133,173314.73841424045,1638,2046,1453,0
-1001.4506338740915,-9.979473989632192,46.50622745927611,317402.43588382425,124305.0216354268,174827.6096883617,1561,2047,1452,0
-1001.2026216939845,-11.044369533243035,46.31226518041961,318979.99869126076,124217.26675582107,176269.52691335263,1429,2047,1460,0
-1001.0969643082473,-12.05338256721057,46.08925489030673,320442.73090006766,124123.52060166339,177636.68642513955,1309,2047,1456,0
-1001.1353075215179,-13.01724476733498,45.80381185939722,321794.6692184603,124021.42796916573,178925.67173119876,1189,2052,1449,0
-1001.3158203892357,-13.943976959321706,45.42528333981754,323041.10331534647,123907.76720229104,180133.44169993664,1205,2052,1451,0
-1001.632370570358,-14.836994992095093,44.928303042743195,324187.8911450012,123778.79054359681,181257.30570787305,1162,2053,1450,0
-1002.0743524447869,-15.694415534519425,44.295231114518145,325240.85096164554,123630.57450284292,182294.8915260616,1056,2062,1450,0
-1002.6276111110703,-16.50973517417968,43.51904705366767,326205.25432385906,123459.3512618386,183244.0974087055,930,2074,1450,0
-1003.2764376623605,-17.273334266215482,42.60487835338211,327085.3396837231,123261.84956538418,184103.07883216365,831,2093,1454,0
-1004.0055140187579,-17.974445304839133,41.56897473249279,327883.90946193197,123035.57467475825,184870.25789907906,748,2113,1454,0
-1004.8006056081502,-18.60381525273907,40.436639740719826,328602.18946976593,122778.97184084503,185544.3409952708,706,2099,1453,0
-1005.6482728501123,-19.156943363172893,39.24045521730392,329239.98969258665,122491.53633283866,186124.38533150213,636,2089,1452,0
-1006.5356487386189,-19.63699917533922,38.01882014797309,329795.99933489494,122173.89211164879,186609.88094404686,564,2085,1453,0
-1007.4506468854515,-20.05673857805889,36.81367255763427,330268.1217148444,121827.74111818035,187000.80221429485,522,2106,1466,0
-1008.3822279113974,-20.439002048790577,35.666181593359205,330653.8937661608,121455.63152023227,187297.6641529915,482,2101,1476,0
-1009.3204589979405,-20.815551309447844,34.61187388806523,330950.9176975082,121060.67831823416,187501.5839037415,469,2109,1481,0
-1010.2566367053324,-21.22486883820001,33.67798387143736,331157.2516474146,120646.37400526772,187614.30256808148,410,2101,1483,0
-1011.1835019462457,-21.709998047606827,32.88362313434466,331271.82233898476,120216.47412250118,187638.1631076664,373,2108,1486,1
