AccX (g),AccY (g),AccZ (g),GyroX (deg/s),GyroY (deg/s),GyroZ (deg/s),Heel ADC0,MidFoot ADC1,Toe ADC2,LABEL
-289.8923094538004,49.25821203880395,36.38645673826019,195393.93270635582,160735.4268022338,448203.23421155364,0,2008,1419,4
-331.6696966868377,51.14702222504917,49.68107508954855,199683.64011464137,159508.517622803,455786.83500807895,0,2009,1416,4
-375.2196359898663,52.562455275309354,63.102311938489315,204000.26891088262,158264.1928483137,463466.00476894464,0,2008,1417,4
-420.49149035804004,53.41022365883593,76.58493521631219,208312.68783809114,157010.89838639594,471202.01873817947,0,2007,1420,4
-467.4221418704426,53.59580612839781,90.05602678201433,212588.85455261517,155757.33862386865,478954.18393572856,0,2007,1422,4
-515.9348156791342,53.02703405381545,103.43376231469762,216796.42922994142,154512.2968092502,486680.0814599777,0,2008,1417,4
-565.9376438612913,51.61672563083204,116.62697109800459,220903.17314791854,153284.39739579754,494335.69166925835,0,2010,1417,4
-617.3231772103167,49.285293713870644,129.53554681994473,224877.31767936435,152081.73843299833,501875.88769159425,0,2004,1419,4
-669.9679409667527,45.962609361522766,142.0504570713758,228687.76849310842,150911.57199109218,509255.07820985274,0,2006,1419,4
-723.7316157683753,41.5882543753577,154.05425655195017,232303.9904551967,149780.30058030505,516427.6903927472,0,2008,1419,4
-778.4573028051725,36.110271538170785,165.42420232738365,235695.79309699842,148693.81226973806,523348.7735256794,0,2007,1419,4
-833.9714975317959,29.483041446577293,176.03653673627812,238833.08585332189,147657.99613155416,529974.5097770107,0,2009,1420,4
-890.0846221780592,21.664029546830022,185.7693264647594,241685.6317597755,146679.27609900586,536262.4756832612,0,2011,1423,4
-946.5955411725695,12.6094670433702,194.50392415567438,244223.0010013834,145765.06433906872,542172.0986536007,0,2010,1420,4
-1003.2970472798875,2.270849487051104,202.1258282071154,246414.73917463346,144924.02984648396,547665.1706454041,0,2010,1418,4
-1059.9790542630483,-9.40757655818422,208.52542125323387,248230.8233250115,144166.03256493402,552706.0958937056,0,2010,1419,4
-1116.4311733735713,-22.492255894510897,213.5988661345471,249642.60724845738,143501.71206871647,557262.0648616822,0,2008,1421,4
-1172.443406429615,-37.06406798476502,217.24892838134755,250623.99564276633,142941.97229363662,561303.0529778531,0,2005,1421,4
-1227.8043311037998,-53.22029487216415,219.38661754371273,251152.6113430204,142497.5077963174,564801.3901205253,0,2009,1420,4
-1282.3003444778585,-71.07411343370804,219.93428383936552,251211.0840821006,142178.30341791437,567731.087012247,0,2005,1430,4
-1335.7154211865668,-90.7513368237405,218.82823429148206,250788.19880829158,141993.20797032688,570067.1594584755,0,2001,1425,4
-1387.8291828499423,-112.38400636767763,216.01907741206315,249879.5786179206,141949.74910850578,571785.0211859152,0,1996,1431,4
-1438.414690785715,-136.1009682918525,211.47059989243655,248488.08611148858,142054.12097799487,572859.9860933586,0,1997,1426,4
-1487.2362638033676,-162.0171216006542,205.1590468469243,246624.12222711972,142311.22812271572,573266.9029327929,0,2000,1428,3
-1534.0477581573905,-190.2227698785741,197.0736568486789,244305.72162127864,142724.80060057595,572979.9277476129,0,2002,1426,3
-1578.5931542356852,-220.7726653123289,187.21805516716412,241558.36912969625,143297.59799975134,571972.4394796633,0,1989,1442,3
-1620.6077355093275,-253.67495434907948,175.61205219213903,238414.66780755538,144031.62609691962,570217.1042898728,0,1985,1437,3
-1659.8192049250654,-288.8802955818716,162.29418075957176,234913.78343097097,144928.39606637604,567686.0942877763,0,1990,1437,3
-1695.951499574039,-326.2705468505979,147.32546319754164,231100.43234253136,145989.35637655182,564351.466501352,0,2001,1439,3
-1728.7305583107384,-365.6484524014609,130.79393087663433,227023.7037822618,147216.4138817314,560185.7080072718,0,2000,1435,3
-1757.892381971684,-406.7319175590018,112.8188117193244,222735.84996147876,148612.43261423876,555162.4531485101,0,1995,1437,3
-1783.1964294202592,-449.1543060634609,93.55393796747316,218290.74790126338,150181.72118111607,549257.3786557182,0,1987,1443,3
-1804.439745722015,-492.4678350794818,73.19056250269651,213742.45984230802,151930.33588433577,542449.2822239689,0,1992,1437,3
-1821.4660087872667,-536.1493963519349,51.95869367492123,209144.32235583273,153865.99698181983,534721.3496393564,0,1982,1441,3
-1834.1715584794113,-579.6112683663612,30.125341206413424,204548.2371324914,155997.65263900833,526062.6148612368,0,1981,1442,3
-1842.5106365578813,-622.2133229213679,7.990842343590571,200004.2129864458,158334.7702655875,516469.6165053097,0,1981,1437,3
-1846.5007292782093,-663.2735440110348,-14.115128507469924,195560.3811744545,160886.28651323056,505948.1840209549,0,1976,1442,3
-1846.229440940887,-702.0789227881029,-35.83905510626319,191263.18397504432,163659.2163884714,494515.2163567822,0,1972,1453,3
-1841.8595068995771,-737.8930447362613,-56.810328393744584,187157.5047304749,166657.2374114334,482200.2340231799,0,1980,1452,3
-1833.6260764409717,-769.9561165152721,-76.64897612662884,183286.4268482636,169879.47455961662,469046.09443797526,0,1980,1452,3
-1821.8271011495492,-797.4830254919502,-94.97552267662621,179690.19233245135,173319.41409150677,455108.6020036308,0,1981,1443,3
-1806.8133526228926,-819.6670784579316,-111.42016765336444,176404.63769969667,176964.04638347446,440456.0310050053,0,1972,1451,3
-1788.9773106421014,-835.6968031026229,-125.63046669631481,173459.2573345562,180793.6937954065,425169.0852287869,0,1979,1445,3
-1768.733886413862,-844.7889150708443,-137.28217130847295,170874.60535892053,184782.7695653326,409340.6310526309,3,1979,1451,3
-1746.4973970407739,-846.228370208971,-146.09192316338257,168659.94458880558,188901.0134960944,393075.4950440201,0,1977,1445,3
-1722.6642098543148,-839.414581110073,-151.82826977348472,166812.418475602,193114.77434435053,376490.70368349494,0,1971,1455,3
-1697.5990017780414,-823.9205996985085,-154.32513079911953,165317.50970993526,197388.17397808033,359715.4577273376,0,1954,1470,3
-1671.6239210845292,-799.5528040207354,-153.50049415866536,164149.87040747525,201683.31020682756,342890.857472455,1,1976,1457,3
-1645.0168265013208,-766.4021645930056,-149.37909032285768,163274.3820592726,205958.58232569761,326169.1512842173,0,1978,1452,3
-1618.01639286972,-724.8945428987181,-142.11630213093477,162647.8925336167,210165.74986225695,309711.5478788373,0,1991,1441,3
-1590.826687007209,-675.8281627166823,-132.01603292198413,162221.66552565573,214247.73014554635,293685.262392463,0,2000,1435,3
-1563.6186854939515,-620.3673546813308,-119.5373838050102,161944.70320830663,218139.22241220728,278259.33421554876,28,2009,1458,3
-1536.528395987688,-559.9849336073765,-105.28977973465497,161768.2735988794,221770.60389251585,263597.1933174306,279,2000,1435,3
-1509.6508628888616,-496.38675510619765,-90.0145589550412,161650.4504514481,225073.31977279778,249847.9018379767,927,2004,1425,3
-1483.0298012798712,-431.43876066872053,-74.54185265526446,161558.960877389,227986.15636669268,237138.55811029283,1796,2001,1429,3
-1456.648716951228,-367.0765545091895,-59.71740635702302,161471.89078484516,230463.338704452,225567.27456195588,2607,2011,1420,3
-1430.4360079171986,-305.18979927468115,-46.32701881476522,161376.55423590494,232482.96044471415,215197.99880074937,2817,2004,1429,3
-1404.2904228016582,-247.4611213609432,-35.03894822111965,161267.80139670847,234054.29905266396,206058.93932483022,2933,2011,1425,3
-1378.116848167733,-195.13521507296824,-26.342998279679374,161148.92473717846,235223.24211891775,198144.18756134048,3042,2005,1427,3
-1351.8607286866286,-148.82059826630547,-20.466508239217127,161037.40866688258,236072.20732281005,191418.50214500696,3083,2014,1417,3
-1325.550548162278,-108.49036667730336,-17.287124946348523,160970.88226345324,236712.5752354581,185824.13940110872,3027,2013,1416,3
-1299.3448041166582,-73.69385177496504,-16.328826828624425,161004.17331514147,237269.77103001418,181287.48955017317,3092,2012,1420,3
-1273.5433829805193,-43.82333609682809,-16.896851015902282,161196.29997262088,237862.1785337731,177724.87092350688,3004,2020,1420,3
-1248.5484541142073,-18.291644990030562,-18.248247132221813,161596.7497823609,238581.6145942283,175047.5613947077,2920,2022,1423,3
-1224.794582388233,3.401390046265343,-19.68881339406828,162238.2993248497,239482.84564670263,173166.8193131137,2885,2029,1418,3
-1202.6638848749217,21.66742516781368,-20.61734098944179,163135.27501409067,240581.15442225678,171999.33128337486,2917,2028,1418,3
-1182.4159211934477,36.854981551033774,-20.557780753156752,164284.23412172802,241854.40687977313,171471.06406855816,2929,2022,1421,0
-1164.162525427342,49.28225726863433,-19.185066784407233,165666.5002392633,243248.20693902168,171517.63700134898,2972,2042,1415,0
-1147.8816228770925,59.26732190846302,-16.341831309898264,167252.89298761365,244683.95295561853,172081.84853555853,2974,2035,1421,0
-1133.445962474495,67.14443069258347,-12.034511932438491,169009.53025841888,246068.5327564827,173110.40678553758,2993,2028,1417,0
-1120.653553163386,73.2561468718477,-6.409367335554603,170902.33270374648,247303.21804219976,174551.7888295063,3025,2035,1418,0
-1109.261595378481,77.92561947902664,0.27503717397088917,172899.2523395227,248292.09410783017,176355.90375250226,3019,2042,1416,0
-1099.023947254388,81.42637640511055,7.670361517178404,174971.1000670988,248951.66118463932,178474.8965937015,2969,2047,1416,0
-1089.722561418798,83.96540408947237,15.357940517471336,177091.8161760053,249219.54611834505,180863.94486891344,2931,2068,1418,0
-1081.185270755954,85.68564201758879,22.87918696929272,179238.53596775015,249060.13502879426,183481.37948132853,2851,2058,1415,0
-1073.2875046625304,86.68483526199675,29.788748481762582,181391.59747310734,248468.17382977478,186288.18847240676,2828,2061,1416,0
-1065.9411720743938,87.03875749747179,35.71424496303118,183534.3106239105,247470.34112075102,189247.31589978162,2761,2074,1421,0
-1059.0818640524928,86.81816487214707,40.40142996516781,185652.3441984416,246121.99311108654,192323.38167286254,2667,2080,1421,0
-1052.664798163598,86.09947607563348,43.73817051210525,187732.91808352564,244497.85521869795,195483.18723445863,2534,2069,1422,0
-1046.6683006347112,84.97063491655446,45.751795087334415,189764.18067695497,242680.28564320807,198696.4659842929,2396,2072,1426,0
-1041.0925324960217,83.52972868403286,46.57745112996827,191735.13991074983,240748.67644592284,201936.05287362784,2232,2078,1427,0
-1035.9468377369942,81.87654441444074,46.40887562422109,193636.11484418472,238770.42133692055,205177.33893449703,2092,2100,1423,0
-1031.2350993512125,80.10259872134465,45.45397897205444,195459.1556407001,236795.16329883432,208397.43091999114,1952,2107,1424,0
-1026.949772580706,78.28517664597607,43.905553854474924,197197.99110274715,234854.2818894337,211574.5430293773,1833,2118,1415,0
-1023.0738320862635,76.48600315833298,41.919784948450626,198847.61547714655,232964.22284552996,214687.90026210374,1674,2107,1422,0
-1019.5843691562634,74.75236214092129,39.60194484775893,200403.8347122319,231130.85988679578,217717.95201892583,1458,2108,1432,0
-1016.4544953699393,73.11889576681644,37.00629941582223,201862.95851541983,229353.7277251783,220646.7129405015,1355,2106,1428,0
-1013.6542535620931,71.6094179694733,34.149062103965704,203221.69210303036,227630.37441713316,223458.33238060033,1242,2127,1425,0
-1011.152255336097,70.23838631783057,31.02568242544359,204477.1985637673,225960.06896881494,226139.72731643755,1088,2089,1443,0
-1008.9187341230861,69.0111702456947,27.627737514748084,205627.26602639948,224345.60019197906,228680.8778852248,1013,2075,1486,0
-1006.9294311388646,67.9230991225097,23.95958658642637,206670.61260547867,222793.03161550366,231074.72384401105,886,2086,1443,0
-1005.1686200007147,66.95884205370866,20.050022405727685,207607.35450690758,221310.02685761062,233316.86629977624,648,2109,1445,0
-1003.6297754895207,66.09341905361077,15.95357602387355,208439.41497934185,219903.84225196508,235405.1808897939,615,2110,1450,0
-1002.3133274840827,65.2952617752736,11.742432362397688,209170.67910906108,218579.80336388998,237339.3884712425,580,2135,1452,0
-1001.2223183361918,64.53111462204595,7.493069145744339,209806.95060485214,217340.27209154528,239120.6673181834,498,2131,1466,0
-1000.358400563091,63.77090824424989,3.2742854550660603,210355.77699017758,216184.2077167766,240751.33869548872,469,2117,1468,0
-999.7195936968407,62.99040310422215,-0.8586159004875534,210826.11278032555,215107.61816467598,242234.62186931798,402,2123,1491,0
-999.2993048437128,62.17138168188748,-4.864778109897138,211227.82022865218,214104.74375565565,243574.4713232923,318,2134,1491,0
-999.0864260593643,61.30039854602835,-8.715972359526745,211571.14603695172,213169.38181345147,244775.46386046676,238,2150,1562,0
-999.0670052747035,60.36677508378233,-12.392141538103541,211866.30436134717,212295.88732660626,245842.70883817738,227,2144,1486,0
-999.2272787746717,59.360176667677756,-15.87542332399371,212123.15573029727,211479.78082869234,246781.8017706472,225,2124,1507,0
-999.5565283446875,58.26849772568361,-19.145763463827326,212350.99363074425,210717.95659550378,247598.77889644387,125,2152,1683,0
-1000.0482529526993,57.07676668570977,-22.180185195263615,212558.5028737585,210008.39499772902,248300.00148770778,83,2183,1703,0
-1000.6995366507357,55.76722076603526,-24.954661584508198,212753.86494139233,209349.46296128212,248891.9752875072,84,2143,1705,0
-1001.5092567505232,54.32062074744934,-27.446841752530986,212944.88732754052,208739.22459810082,249381.15090922124,92,2121,1592,0
-1002.4755480985158,52.718822778431644,-29.639783105739845,213139.11116910793,208175.11443887837,249773.76167268975,40,2090,1570,0
-1003.593648502523,50.947325870219785,-31.524565365093444,213344.012609816,207653.90522754035,250075.76419534074,15,2112,1584,0
-1004.8559600115947,48.99592446176177,-33.09719787057414,213567.1117548796,207171.76819901334,250292.82537396267,44,2147,1784,0
-1006.2535505944728,46.858513306582076,-34.3534771583698,213815.4304875868,206724.31369624202,250430.17017852582,0,2147,1768,0
-1007.7763398824569,44.53469759020108,-35.290337366327726,214094.287768719,206306.70206202476,250492.29736069147,0,2099,1615,1
-1009.4121984555153,42.032526656891406,-35.91234209779709,214406.12264932448,205914.21838597473,250482.81211813254,0,2079,1634,1
-1011.1478546019205,39.368950742410284,-36.23442848332202,214749.99198645068,205543.45957049108,250404.5011726277,0,2095,1650,1
-1012.9725347817857,36.56679407521442,-36.2765378820952,215121.92404658187,205193.50604753577,250259.5202666468,0,2098,1660,1
-1014.8825731129009,33.65059721894347,-36.053464056950965,215515.80004957385,204866.24238633065,250049.50253058647,0,2006,1722,1
-1016.884903261201,30.644041851190064,-35.56650223092778,215924.2313372277,204565.67020174634,249775.5316093328,0,1993,1759,1
-1018.9980140845706,27.56968930385393,-34.80135474934808,216339.07262000747,204296.7773917941,249438.0444513178,0,1988,1768,1
-1021.2503942172237,24.449595370586003,-33.732119258310505,216751.65095833363,204064.47348263007,249036.67432859688,0,1947,1815,1
-1023.6780682868609,21.305056123159876,-32.32864439635157,217152.99542209873,203872.70200505157,248570.00857513846,0,1940,1851,1
-1026.3227450878628,18.155573751361278,-30.563562842159943,217534.08096210807,203723.8860067099,248035.34251633615,2,1877,1873,1
-1029.2316010208938,15.01822945261535,-28.416222847919524,217886.00930961533,203618.8888666964,247428.4922369523,8,1876,1865,1
-1032.4597876535265,11.908356215808496,-25.87487582487713,218200.15035802592,203557.37941161875,246743.6306409492,0,1785,1964,1
-1036.073577983949,8.840717912923544,-22.94023004314739,218468.25963968554,203538.28613079488,245973.18264463346,0,1693,2037,1
-1040.1480613857843,5.8297856127508165,-19.629314978466716,218682.74843906652,203560.08580451563,245107.86962793616,0,1700,2056,1
-1044.7579676101802,2.89110264467809,-15.97304237337277,218837.34491474502,203620.91776104705,244136.9273327636,0,1731,2077,1
-1049.9687268313867,0.04556923808656774,-12.006577059092217,218927.87891266248,203718.69271726263,243048.43406970383,5,1535,2202,1
-1055.8340293686924,-2.6763424371731226,-7.762311512151256,218952.64630129837,203851.37049190025,241829.7591612051,3,1576,2176,1
-1062.3979569353571,-5.232014081191817,-3.2694268058658396,218912.26594206828,204017.354410195,240468.32997082022,0,1463,2255,1
-1069.696988102053,-7.564201791706628,1.4452014012242302,218809.1540842332,204215.72356062767,238952.70569685008,0,1407,2306,1
-1077.7614800837162,-9.60025380192371,6.356043376256996,218646.6748251123,204446.19393971487,237273.65478076568,0,1345,2370,1
-1086.6179308409564,-11.256411394159878,11.43516376835322,218428.31963592552,204708.92499583974,235424.90924391823,1,1250,2398,1
-1096.2913855443176,-12.447087604108765,16.645375970734964,218157.40457583457,205004.23525712854,233403.10400197865,7,1258,2402,1
-1106.8063749819503,-13.093973133313368,21.933776437581354,217837.46285222872,205332.26559533758,231206.7885394079,0,1134,2462,1
-1118.1853228423483,-13.1282395864069,27.22977753981291,217473.08201909976,205692.74308459333,228835.4322334716,0,1171,2518,1
-1130.4460098867946,-12.485468336769886,32.44956489801851,217070.73599439094,206084.96103676208,226289.399243425,0,1002,2562,1
-1143.6013837760793,-11.100669979611903,37.5071946456234,216639.32967614653,206507.86279326,223570.82959824742,0,959,2634,1
-1157.6617777001645,-8.910771764602906,42.32543949731439,216190.2327228567,206960.03884631113,220684.50762821338,5,861,2678,1
-1172.636495863995,-5.865537166416841,46.835570477706234,215736.67386200477,207439.6462180948,217637.55411988616,0,854,2706,1
-1188.5333309963735,-1.939968494886442,50.96937078427293,215293.02786095988,207944.41136482984,214437.64726933977,0,777,2741,1
-1205.356333237816,2.861316451913101,54.655820852411,214874.71771800582,208471.76420415807,211091.05539064755,2,735,2781,1
-1223.101869139291,8.511517435170827,57.82544158848268,214498.55672270872,209019.05700310922,207601.78289945266,5,693,2828,1
-1241.7533451731006,14.976717853154346,60.41853527608053,214182.8615987905,209583.86100951605,203971.76814413888,2,589,2851,1
-1261.2759224501535,22.22890889879638,62.393469201674435,213947.09926521903,210164.23438367664,200201.55565127486,0,529,2872,1
-1281.6124048536399,30.24998945339591,63.73222932405518,213811.19060378324,210758.80275921256,196291.10818923992,0,480,2892,1
-1302.6806431764687,39.028755394855,64.443064887076,213794.61382349214,211366.64889115546,192240.6198468524,8,412,2922,1
-1324.3730969987646,48.55535390586758,64.55963850620122,213915.24500230953,211987.0427428073,188051.3225509618,0,339,2971,1
-1346.558397912574,58.81513355897783,64.13587680996551,214187.85326798225,212619.03707034863,183726.27503788643,0,307,2964,1
-1369.082313034356,69.78359314518798,63.238723895475594,214622.657326927,213261.07709062664,179271.0866326999,1,259,2981,1
-1391.7666106793256,81.42342359170328,61.94064766923495,215224.38650693375,213910.7770662113,174694.45874054634,6,212,2982,1
-1414.4070394451883,93.6829657772282,60.31179182487812,215991.77209420313,214564.87016222568,170008.45934692913,9,178,2993,1
-1436.7712757289269,106.49520883426995,58.41317783838422,216917.32462731528,215219.23069530632,165228.7281592983,11,157,3011,1
-1458.597432529409,119.77715268766214,56.29191996310327,217987.4373916874,215868.8937798004,160374.7439647611,11,147,3027,1
-1479.593701566713,133.42941537735703,53.97734290101606,219182.79205743942,216508.09137932464,155469.99713813476,14,95,3010,1
-1499.4379532130217,147.33539345473048,51.47840748309384,220478.8560305921,217130.35832860885,150542.0754794886,11,124,3016,1
-1517.7780127644517,161.35974246948192,48.78484808201537,221846.37253282382,217728.84909984592,145622.65666696438,12,149,3021,1
-1534.236617914242,175.34657753281698,45.87354587763521,223251.92494698946,218296.96610592693,140747.2677568026,19,130,3017,1
-1548.4214134665565,189.1177845994844,42.717810086959,224658.39968679196,218829.07071675296,135955.0163176396,8,149,2999,1
-1559.9379745976762,202.47280139064267,39.29575571261552,226025.14133070875,219320.97010795833,131288.32642278398,8,185,2967,1
-1568.4050979064625,215.1908432494872,35.59714003533299,227307.96719613243,219770.04968714213,126792.40336416826,15,235,2929,1
-1573.4675567068753,227.0339833906507,31.625997716849394,228459.20066853354,220175.03515358013,122514.66553729952,19,327,2878,1
-1574.8038036973214,237.74942092018625,27.393681309871244,229428.0529587242,220535.59704727784,118504.33839420791,25,409,2795,1
-1572.1351222143628,247.07043846401842,22.90740764894385,230162.06220061996,220852.154407855,114811.95728963247,24,540,2694,1
-1565.240551153149,254.71911561283554,18.166986768417484,230609.66518158177,221126.0344680443,111488.92477301988,30,707,2554,1
-1553.9754327386065,260.4244298290111,13.171874133203787,230723.68014169583,221359.86777511466,108587.25168829181,29,829,2446,1
-1538.2882066004825,263.96509325043513,7.929883831260417,230465.60786942477,221557.95426716722,106159.10305285995,3,992,2328,1
-1518.2253584778832,265.22135496989915,2.4620463096857117,229809.67708416947,221726.3221544256,104256.06999084374,9,1152,2227,1
-1493.9132618913918,264.21330645155444,-3.1901128572152695,228745.89972245845,221872.34607615258,102928.3253861606,20,1288,2083,1
-1465.5184577067114,261.1156175459978,-8.945935680627656,227282.61994640512,222004.08601987787,102223.75454802334,17,1376,1983,1
-1433.2090671629587,256.2447345570031,-14.663545397086091,225448.02657901958,222129.66059292617,102187.47642233326,15,1539,1879,1
-1397.140199249535,250.01723251568507,-20.136045012097927,223288.92076841922,222256.50243242958,102862.06124617904,12,1716,1723,1
-1357.4647772078692,242.88868305759024,-25.1141175234169,220866.545658671,222389.9792693985,104288.09313770017,4,1788,1643,1
-1314.3573664456746,235.29806994985296,-29.340116014221053,218251.68863930993,222531.4148530761,106504.29455817858,11,1839,1567,1
-1268.0393616952942,227.63124883209204,-32.58025243640049,215520.32536823384,222675.6964888784,109546.27149540962,13,1898,1511,1
-1218.8001115992695,220.19346777932398,-34.65391938298321,212749.0354755267,222808.54272627176,113443.60649974989,22,1931,1490,2
-1167.0111732375863,213.18856635057614,-35.456135409433365,210010.60390031847,222904.3940126068,118216.46928949453,18,1969,1459,2
-1113.1286262109702,206.71396032439733,-34.968799286410025,207370.6788158762,222926.33695984705,123873.17883198093,4,2010,1419,2
-1057.6807157438302,200.77253369862146,-33.264268572321946,204885.16036335056,222828.38094508759,130409.05009614132,11,2013,1418,2
-1001.247207931996,195.29382516861952,-30.503059908918246,202598.68613184404,222559.13938420566,137806.2097635035,8,2006,1425,2
-944.4344561235678,190.16038288343668,-26.9202740596011,200545.0241744025,222066.66651803325,146034.38868152932,0,2013,1419,2
-887.8443701082462,185.23968798401594,-22.797928186407226,198748.97668635094,221304.83503326762,155052.64794701317,0,2009,1419,2
-832.0469075732108,180.41534981796232,-18.43227816555563,197228.6219256268,220239.68942749713,164811.11041203936,0,2010,1419,2
-777.5648242909455,175.61157355304329,-14.101254950784952,195997.21747196282,218853.98177417315,175252.47438017718,0,2010,1419,2
-724.8646185905626,170.81121702204078,-10.026452800364295,195064.7854618619,217149.92749271047,186314.15181262518,0,2009,1420,2
-674.3517919746753,166.06239066961655,-6.337338426206129,194439.11593668984,215149.8165842296,197930.5488672212,0,2007,1421,2
-626.3762838515389,161.46450014607572,-3.0571696242135666,194125.54894417388,212892.82726783332,210034.9131686208,0,2010,1417,2
-581.2491442576431,157.1356906829117,-0.11758537609202524,194125.5562254463,210427.81337231596,222561.2793117993,0,2009,1418,2
-539.2626834712116,153.17895855508826,2.6096924328177753,194435.23618271988,207805.31006069412,235445.90904847067,6,2010,1417,2
-500.70107074603254,149.66034888501312,5.278974750956428,195045.06207730004,205071.73421451583,248627.5575627637,0,2009,1420,2
-465.83686041982713,146.59764035045717,8.040445315692672,195941.13690036073,202265.62822508274,262047.28706373845,2,2002,1421,2
-434.92224734788925,143.95761624060492,11.01808606465151,197107.03467301896,199415.74313279567,275648.0331563686,3,2008,1423,2
-408.18282583665433,141.66368547883224,14.299219242056996,198525.54880114482,196541.33500623202,289373.9355104794,0,2010,1417,2
-385.81339710447287,139.61112888493756,17.933164097663457,200180.36617140146,193653.96178474664,303170.02895955043,0,2009,1422,2
-367.9723903889613,137.68661182924606,21.936539726886934,202057.3120878373,190759.73130201577,316982.12885496946,0,2009,1419,2
-354.773089437882,135.7895203410745,26.304413064550765,204144.68994083343,187861.63211110872,330756.888377176,0,2009,1418,2
-346.27536646765515,133.84800718768247,31.023860108611622,206432.81219941244,184961.9488330804,344442.6812083096,5,2009,1421,2
-342.4841922793865,131.82414505587113,36.08502680875463,208912.66103648182,182064.6024897783,357990.78978099284,0,2010,1419,2
-343.3558068220874,129.71057124057018,41.48787051952631,211573.636426336,179177.12271380905,371356.10329719353,0,2006,1419,2
-348.8071038665053,127.52314387161854,47.24487792913578,214401.2326602571,176311.78719289877,384497.51441175264,0,2008,1418,2
-358.7248377626455,125.29008060071452,53.38026790250532,217375.5439858285,173485.40944580897,397378.36707838194,0,2009,1418,2
-372.9739194027279,123.03712234398593,59.92736345951254,220470.64938584054,170717.88238034977,409967.04206920095,0,2008,1418,2
-391.403271821728,120.77342998359458,66.92494461257886,223654.5641880831,168030.42309910824,422237.0735428418,0,2008,1419,2
-413.8486846993741,118.4830160954799,74.41092866843843,226889.80596594684,165444.07214303085,434166.3804738419,0,2010,1416,2
-440.13411888083317,116.12156339744446,82.41330342740343,230134.7195441967,162978.19470734138,445736.1637618494,0,2008,1415,2
-470.0711746527335,113.61815173702958,90.94217508289233,233345.05494796304,160649.20155336914,456929.7127930886,0,2008,1415,2
-503.45698912422984,110.88266600770214,99.98541573109104,236475.38336453305,158469.87110835413,467731.2127471063,0,2006,1415,2
-540.0730397967754,107.81714564383013,109.50636924318138,239480.52043716406,156449.03037267446,478124.99846083653,0,2006,1415,2
-579.6852459755318,104.32577899056807,119.4421457315376,242316.67922957253,154591.46038713603,488095.1628519741,0,2006,1416,2
-622.045147071013,100.320081741789,129.7031418512019,244942.05581818844,152898.16890990225,497625.40895740956,0,2008,1419,2
-666.8929708852176,95.72035040473172,140.17425562991474,247317.1658227131,151366.98931520924,506699.37942007935,0,2008,1416,2
-713.9605831165235,90.45517672335812,150.71709197080648,249405.04917750828,149993.34755646336,515300.9845055556,0,2005,1417,2
-762.9733024195782,84.45921422073592,161.17406681341296,251171.2971328818,148771.1850316893,523414.3262249125,0,2005,1419,2
-813.6524589436705,77.66902497180749,171.37553692279624,252584.0684824201,147694.05566261563,531023.6057543164,0,2011,1422,2
-865.7176705338162,70.01834639930946,181.14728404612507,253614.14326998542,146756.13292262258,538113.020150341,0,2007,1416,2
-918.8891236268362,61.43419786320976,190.31638086505887,254235.00484657983,145952.83770072457,544666.562167781,0,2008,1416,2
-972.8921543483525,51.83409601422893,198.71672045949,254423.00476188614,145281.09685739942,550668.0377091375,0,2005,1416,2
-1027.4605478875726,41.12422080602283,206.1930408667272,254157.59272472368,144739.33205025608,556101.1774603996,0,2010,1418,2
-1082.335535531021,29.196528535468325,212.60125757939184,253421.7990897171,144327.14480229095,560949.725884284,0,2011,1419,2
-1137.263304286132,15.923841650017089,217.8071988601394,252203.27000116702,144044.6774742584,565197.7906819006,0,2011,1416,2
-1191.992520626508,1.156580358786905,221.6861712127471,250495.62642026442,143891.89011651825,568830.1875494933,0,2010,1418,2
-1246.272739620635,-15.275208380723043,224.1220584445737,248299.72293394117,143867.97732532228,571832.2877020136,0,2011,1416,2
-1299.8545299177995,-33.55494784888997,225.0049369101602,245624.77125694888,143970.91237621458,574189.5050785429,0,1987,1434,2
-1352.4879946022613,-53.87003487605159,224.2298158280651,242489.26904526996,144197.21371887566,575886.7485719154,0,2000,1425,2
-1403.9184295383452,-76.39985846978848,221.69991335905118,238921.38134609436,144542.1977294525,576907.9468469354,0,2001,1425,2
-1453.8824263328268,-101.30086650431025,217.33332588131083,234958.5951058247,145000.7434199017,577235.6883894706,0,1992,1430,3
-1502.1053450689944,-128.6924055009781,211.0679964988375,230646.95913232878,145568.13793451237,576851.0046324582,0,2001,1425,3
-1548.301030134965,-158.64735788256118,202.86287120060769,226040.06029739976,146240.60203106602,575733.3017857993,0,1982,1444,3
-1592.1760503095354,-191.18662841077597,192.69773250497963,221197.61014350996,147015.56417305718,573860.445440471,0,1994,1432,3
-1633.435712595134,-226.2745061748004,180.57428977825322,216184.0742928167,147891.86957563533,571209.0023489493,0,1981,1447,3
-1671.7893684035396,-263.81345231242057,166.5191462607598,211067.4572406846,148870.04436334776,567754.6440971955,0,1966,1449,3
-1706.9569488823136,-303.6382145721904,150.58829404462875,205917.6827305762,149952.6938836528,563472.717644331,0,1984,1447,3
-1738.6755860739775,-345.50961153674945,132.87222048144974,200804.84077649203,151144.8866886519,558338.9878799976,0,1985,1437,3
-1766.7063390268881,-389.1099369654192,113.50016764223105,195797.57943232325,152454.3923895074,552330.5574005088,0,1998,1432,3
-1790.8447218113085,-434.04231183549945,92.6425878744752,190961.2233998944,153891.84211437235,545426.9685964038,0,1997,1431,3
-1810.9323390804266,-479.8327670150225,70.5123565548047,186356.05087984426,155470.75695470083,537611.4928379488,0,1972,1453,3
-1826.8649325972694,-525.9347397331784,47.365254279362574,182036.26762248643,157207.207238099,528872.61053394,0,1977,1443,3
-1838.5973671268732,-571.7380796101296,23.498976698951246,178049.28549668525,159118.98423490534,519205.68455141934,0,1964,1455,3
-1846.1453365187592,-616.5789720494495,-0.7492086467950512,174435.2490750241,161224.4198792307,508614.77129041543,0,1953,1465,3
-1849.5823937897167,-659.7466648232154,-25.007306389083134,171227.0350388358,163540.87980369173,497114.24467203004,0,1986,1441,3
-1849.0340425230995,-700.4882638573127,-48.87850005989883,168450.47742853436,166082.85716496976,484729.86994869774,0,1963,1451,3
-1844.6713779030463,-738.0109333147849,-71.95360295971598,166124.60896125474,168860.0234368511,471499.5095981573,0,1978,1446,3
-1836.7044921549173,-771.4836691174697,-93.8234191881979,164261.79603805384,171875.58410484597,457473.6225937762,0,1996,1444,3
-1825.377040899876,-800.0467542577364,-114.09222570118678,162867.5554701661,175124.9095211217,442715.46605994843,0,1978,1447,3
-1810.9636395891557,-822.830960508108,-132.38907459128976,161940.1228413076,178594.68380255194,427301.5076722205,0,1983,1448,3
-1793.7658746303189,-838.9889143149261,-148.37278211924936,161469.96931640396,182263.27976203954,411322.1588944462,0,1971,1453,3
-1774.1044610817562,-847.7423841349739,-161.73215603019418,161439.3437014425,186102.58077904437,394882.1806170445,0,1977,1447,3
-1752.3116466320382,-848.4322514992047,-172.1867954526549,161821.92947835848,190080.17122165288,378100.8863439079,0,1981,1446,3
-1728.7205943966735,-840.5622906642802,-179.49948083034275,162582.59543212992,194160.5504881697,361111.87761949585,0,2000,1440,3
-1703.6440169197504,-823.8474559898737,-183.5055943488361,163677.20768760727,198304.87319226502,344061.4722951894,0,1994,1435,3
-1677.3493687535831,-798.2655331342555,-184.1445309382031,165052.76551668707,202469.38278158932,327106.86857826007,0,2002,1431,3
-1650.046986383836,-764.1006830562912,-181.4783788528039,166648.42677445558,206603.43454119426,310414.70224554016,12,1989,1435,3
-1621.898040758812,-721.9734971908427,-175.70441385174263,168397.60533804604,210648.4139600226,294158.63664111565,136,1992,1439,3
-1593.0356431505743,-672.8500964894376,-167.168059259142,170230.45378478948,214538.3407306206,278515.67922310764,333,1997,1429,3
-1563.5833240031668,-618.0208629661303,-156.36435348972626,172076.5915790764,218202.9461759855,263660.1324613773,898,2002,1433,3
-1533.6574668942058,-559.0501520214618,-143.91549433948495,173868.47951565273,221573.55782509432,249753.66971599034,1803,2000,1434,3
-1503.3567767619109,-497.70849542946536,-130.53036734484004,175544.54548746394,224590.0504055208,236935.20502311856,2413,2005,1433,3
-1472.7549707165624,-435.86281632873045,-116.95607690711279,177051.38616614224,227208.10318652913,225314.24743895433,2507,2009,1421,3
-1441.9061225688085,-375.290445427912,-103.92825480805477,178345.87399087573,229407.7397995228,214966.19476380415,2683,1997,1437,3
-1410.857945741113,-317.4680864881141,-92.12850578525452,179398.07745948643,231200.88998010318,205928.83443024004,2714,2000,1468,3
-1379.6716762063816,-263.4207844830779,-82.11682792250257,180196.8407571347,232634.1832520834,198201.93216965947,2692,2004,1425,3
-1348.4603106133957,-213.6904512924426,-74.20598968300244,180757.31213734945,233784.9473928246,191751.12275565456,2673,2004,1429,3
-1317.4412464967122,-168.44757566444142,-68.36602010168704,181122.86078905,234749.97688368178,186515.21127301131,2534,1989,1439,3
-1286.968139463242,-127.65887770969258,-64.25913396507367,181357.02275302535,235630.48879098642,182413.678827461,2590,1993,1436,3
-1257.506651624659,-91.19818524112124,-61.364022168477796,181530.03815420932,236517.02686963635,179352.8459457638,2534,1994,1433,3
-1229.5557183181627,-58.894730477136314,-59.10585498951161,181705.8204923714,237475.59756917512,177232.39331475136,2487,1997,1429,3
-1203.5587414632773,-30.551754985365452,-56.94764990823351,181933.9801109154,238538.75145783523,175952.02628647478,2532,1996,1434,3
-1179.841614919957,-5.944520710453592,-54.433799697779875,182248.64149660457,239705.02018222096,175415.84152909555,2636,2034,1416,0
-1158.577212374534,15.193943766016378,-51.212324612089596,182671.10863311627,240944.70919151814,175533.82079234935,2634,2025,1418,0
-1139.7743305805125,33.18437174960135,-47.05412394315259,183212.8690625457,242207.35846225137,176221.5076705634,2657,2031,1417,0
-1123.2975048275143,48.397178209187814,-41.86399887589627,183877.63785256192,243427.71737619236,177399.2326336321,2698,2024,1420,0
-1108.9119628322082,61.22831148035735,-35.67641260778119,184662.9649807672,244531.31792271615,178992.14455920516,2760,2067,1414,0
-1096.3336334045018,72.06234997512702,-28.636570848664366,185562.02413397955,245442.0032540071,180931.21505692689,2831,2061,1424,0
-1085.2661818545523,81.23995243808852,-20.97906680020874,186565.08118864405,246090.0063766027,183154.34652382787,2840,2058,1416,0
-1075.4265748589564,89.04073454862655,-13.011183886630873,187660.25909794748,246418.679160833,185606.86826268517,2858,2081,1417,0
-1066.569704455583,95.67733725870237,-5.092320175133474,188834.0613264714,246390.38486596508,188241.41961368194,2878,2032,1419,0
-1058.5096524892865,101.29580815063203,2.3963928034102144,190071.91650414426,245991.00357447448,191017.40947280996,2831,2064,1421,0
-1051.1256372506807,105.9873642068319,9.094880777403523,191358.65200135316,245231.63290728437,193900.06530452543,2807,2070,1416,0
-1044.3477281628925,109.81296267332256,14.718172416727759,192678.93475802112,244147.5195275001,196859.1639823134,2765,2053,1416,0
-1038.1346856967205,112.82693577992619,19.10060586148631,194017.69546143565,242794.58543538203,199867.88994257903,2735,2055,1454,0
-1032.4619900581033,115.08698249038194,22.207306429565122,195360.6991704466,241242.35418840655,202902.31351778703,2698,2064,1417,0
-1027.319359232174,116.65418610459304,24.11335799230866,196695.47430219318,239562.99948364857,205941.35852322544,2634,2064,1418,0
-1022.7058337440168,117.59170698857554,24.968482937828043,198012.2008409315,237820.835732005,208966.61734823333,2515,2056,1422,0
-1018.6202219468245,117.96423930723809,24.961449209436747,199303.96455315585,236066.36189338446,211961.6761724269,2376,2060,1422,0
-1015.0521013706775,117.83757569498493,24.286130718774853,200566.37256475067,234334.30284412522,214911.20960606422,2302,2070,1417,0
-1011.9782771329266,117.27878816131413,23.1135486214698,201796.8809251332,232644.14757363294,217800.29197162777,2135,2093,1420,0
-1009.3650480938985,116.35762693897134,21.576133604642806,202994.03155086274,231002.98388273656,220614.21975862395,1984,2082,1421,0
-1007.1718140977748,115.14850693855188,19.761965321235905,204156.64649974616,229410.13357452932,223338.81226818482,1796,2094,1423,0
-1005.3528850961469,113.73103177429752,17.716310519975437,205283.1118263805,227861.85564324254,225960.81404583127,1719,2099,1427,0
-1003.8590803681042,112.18657608705512,15.451739415844312,206370.85721556502,226354.85761776936,228468.24114027686,1527,2088,1419,0
-1002.641497019,110.59092286686503,12.965069161834338,207416.07186345296,224888.67641107144,230850.86095866625,1357,2101,1425,0
-1001.6565877088499,109.00674115004475,10.253512494200818,208413.77035097318,223466.69136580953,233100.67095957467,1216,2115,1427,0
-1000.8704958845492,107.47892759964813,7.324782649542196,209358.19959949335,222095.62420702016,235212.00801591788,1138,2113,1424,0
-1000.260716208908,106.03312034180269,4.201515527831235,210243.5313579299,220783.961405852,237181.26974781687,993,2113,1418,0
-999.8132398019014,104.67779060916749,0.9199668134800163,211064.79499215778,219539.70275896406,239006.48476655045,840,2147,1423,0
-999.5168762306716,103.40908984552917,-2.4755078803710537,211818.67080063865,218368.38043888408,240686.9111947648,775,2153,1427,0
-999.3588122339563,102.2163748936088,-5.938569038416042,212503.76883798037,217272.2723230456,242222.76844350115,641,2195,1615,0
-999.3230433142337,101.08756809359471,-9.426476358955492,213120.4635018666,216250.68735835073,243615.14002544645,604,2190,1617,0
-999.3909581914822,100.01304203460076,-12.904050521404812,213670.50838390252,215300.7836809587,244865.96229100303,517,2192,1618,0
-999.5429415565815,98.98606318478423,-16.343733093725568,214156.5377081849,214418.64215174987,245978.03829177824,462,2207,1619,0
-999.7604500565213,97.99995706337413,-19.721912757297705,214581.51319421845,213600.4333453265,246955.10529876826,347,2153,1478,0
-1000.028190643936,97.04456707796335,-23.014308721210913,214948.26916486528,212843.31454346076,247801.90346471427,279,2192,1618,0
-1000.3357222731081,96.10444533959262,-26.193067579638225,215259.31157117896,212145.7078055225,248524.17639984906,220,2218,1637,0
-1000.6782832359088,95.15895186088343,-29.226516240889218,215516.86613151565,211507.0075950657,249128.62385125473,188,2215,1646,0
-1001.0568864476645,94.1831007332291,-32.08108158759916,215723.0704473773,210927.04582741563,249622.80200749464,199,2255,1651,0
-1001.47732223337,93.1485284064887,-34.72471407765299,215880.256089299,210405.51481388404,250014.9323052549,171,2228,1660,0
-1001.9479078554921,92.02466964371189,-37.13104564229447,215991.29510351885,209941.38278002647,250313.64182628389,117,2253,1679,0
-1002.4768128018246,90.78038807325458,-39.28258810349002,216059.87074572846,209532.49763594163,250527.7212655467,111,2242,1670,0
-1003.070002554147,89.38589367469898,-41.171812713714914,216090.54923623442,209175.60944470722,250665.95116731248,100,2272,1688,0
-1003.7301072178126,87.81360153693855,-42.800529457335635,216088.72974817752,208866.7525138293,250736.98147197484,69,2281,1701,0
-1004.4563477294679,86.03718848400358,-44.17677793714199,216060.6196402161,208601.65823449442,250749.215502629,46,2267,1706,1
-1005.2449568173755,84.03149089264616,-45.309296728229256,216013.02942143969,208375.8913900208,250710.65341688407,12,2275,1704,1
-1006.0880867287601,81.77646232279864,-46.206919742471314,215952.41215684355,208184.7869672818,250628.7867043053,18,2291,1738,1
-1006.9717267560161,79.26329491873547,-46.8867801373667,215883.3356834291,208023.59761322997,250510.7164513737,18,2293,1740,1
-1007.8777062837448,76.4964295368686,-47.379712137808596,215807.6204538502,207888.2078068992,250363.4569681066,3,2306,1736,1
-1008.7914997281182,73.48836378616666,-47.722471300936164,215724.810138517,207776.255667889,250194.12617015204,0,2297,1787,1
-1009.7100932376977,70.25190300774959,-47.943354044816964,215633.3061539742,207687.9146072316,250009.78506686288,4,2329,1799,1
-1010.6448014444352,66.79717524482412,-48.05344617571154,215531.2202618321,207625.6799706284,249816.96854431354,9,2300,1809,1
-1011.6198780138433,63.13530878808621,-48.046386964770875,215416.7257622423,207593.24688789187,249621.13837262968,0,2264,1809,1
-1012.6698495563339,59.28419124851267,-47.90218842650893,215288.17211650443,207594.2013108216,249426.30189812908,0,2256,1835,1
-1013.8366791429168,55.27132705080887,-47.59203165449487,215144.14540604208,207631.06900356378,249234.82783593715,0,2297,1844,1
-1015.16697991901,51.13305290394882,-47.08330767593434,214983.51245948728,207704.73586256543,249047.3044097032,0,2251,1893,1
-1016.7101001440852,46.911363855386774,-46.344439899837816,214805.39421838583,207814.27053415484,248862.33242121234,0,2240,1886,1
-1018.5174848866454,42.649587512183224,-45.34894574439516,214609.03179857228,207957.2344232269,248676.26228964067,0,2246,1891,1
-1020.643317259978,38.389187139476,-44.078154727377424,214393.6383448992,208130.2831207855,248482.97120181937,10,2189,1967,1
-1023.1462272998291,34.16863520214572,-42.52317744580914,214158.3756581198,208329.8408245693,248273.72650878414,3,2199,1978,1
-1026.089874551719,30.02280903997965,-40.6872269985809,213902.51353152568,208552.72385407833,248037.10717555755,0,2119,2020,1
-1029.540316702773,25.98278001388453,-38.58629978748388,213625.7452921496,208796.51760641424,247759.01749362226,5,2060,1931,1
-1033.5617975521768,22.07784952123487,-36.24441291888885,213328.6184360098,209059.68780795037,247422.85535596783,0,2039,1935,1
-1038.214153593723,18.33935644848743,-33.685376622347434,213012.9526613354,209341.64595954373,247009.79615329416,4,1983,1976,1
-1043.5528833305157,14.803973521961415,-30.927496591688648,212682.00135349436,209642.82960707648,246499.1592695523,0,1967,2004,1
-1049.630514371916,11.51640516672288,-27.983464183517647,212340.1754919882,209964.66428339263,245869.05048074288,2,1839,2115,1
-1056.4974891441504,8.531666152760847,-24.864962005444465,211992.39539233476,210309.38854400968,245097.35703027286,0,1775,2143,1
-1064.2016475263997,5.915164074323108,-21.589384530122505,211643.54852847368,210679.85257719952,244162.66396372794,8,1724,2179,1
-1072.7868445457857,3.7393020681822695,-18.18231150625454,211298.64576863122,211079.2986724737,243044.7211264893,4,1695,2279,1
-1082.2925672656356,2.0780473491844114,-14.674284338494985,210963.61695349583,211511.05785763898,241724.65512736933,0,1612,2317,1
-1092.7551707213665,1.0028911934668676,-11.097128156293415,210646.06814019327,211978.18142735012,240185.23341908923,0,1563,2352,1
-1104.209613160822,0.581135462544888,-7.482825584728987,210355.55614554026,212482.9977999014,238411.1384707527,0,1472,2407,1
-1116.6909195352366,0.8736925755434839,-3.8641992150345503,210103.48651178583,213026.56068122856,236389.04085341675,0,1418,2505,1
-1130.2346828395914,1.9313405334296927,-0.2768201936536435,209902.89758081734,213608.1432696299,234107.4262637925,3,1323,2537,1
-1144.8755515305577,3.7932625277749263,3.2384265751791985,209768.2273503165,214225.01165836438,231556.24882686752,0,1205,2611,1
-1160.6431332900054,6.49230502488516,6.6345650109497765,209715.08250016364,214872.533401297,228726.59052357895,0,1136,2635,1
-1177.5557900969159,10.065887765981168,9.860256594469067,209759.96472582823,215544.52859921777,225610.83097204985,0,1130,2673,1
-1195.6134970199892,14.56787189545852,12.860484094873678,209919.72252912645,216233.7988499335,222203.928834317,3,1046,2718,1
-1214.792010642918,20.07654408584826,15.576549281354163,210210.71655637593,216932.81388261763,218505.7663417105,4,939,2771,1
-1235.0431270477702,26.687806938090926,17.952264131656232,210647.89107618743,217634.50968568336,214523.32619538263,0,849,2810,1
-1256.3031229534108,34.48374666620938,19.94696326692701,211243.64650136052,218332.99383805247,210271.3501283103,5,779,2847,1
-1278.502053144515,43.492210740714754,21.541920710027476,212006.568163264,219023.89110452155,205771.15763089203,1,719,2864,1
-1301.5654827938704,53.669779702832365,22.730245552729436,212940.84166115455,219704.41253146253,201047.38470506994,0,684,2887,1
-1325.4103830595313,64.91705839248891,23.506205997565004,214047.40373218895,220373.3482170387,196123.26337944748,0,645,2925,1
-1349.939811599772,77.10765901633829,23.872365269879133,215326.3122214867,221030.8042938043,191017.21204351904,0,542,2944,1
-1375.0345756761594,90.1160342474696,23.853177363232366,216778.11417280458,221677.28967065594,185742.66199530812,2,461,2968,1
-1400.5407214128259,103.83957918835307,23.496900709763104,218403.057620794,222312.16033373072,180310.33378330158,23,407,2966,1
-1426.2585121707166,118.20706122934962,22.865851107322555,220199.05881315313,222932.20443912045,174731.29635770735,9,302,2984,1
-1451.9389411285802,133.16701309628715,22.02119635589028,222159.5306777851,223531.25351335228,169019.6388532939,0,263,2993,1
-1477.2867903989647,148.6626118559738,21.00582854018112,224271.52464979238,224100.8898646622,163194.27722851367,2,250,2992,1
-1501.9640913302953,164.6090689037234,19.831835733428736,226514.64945343585,224631.62928536106,157279.802706831,3,205,3013,1
-1525.5918667162093,180.88471060275802,18.48012914781208,228861.2991190677,225114.12536325245,151306.3837952221,3,195,3024,1
-1547.7531723419556,197.33334557607395,16.911286065440503,231278.02240326387,225540.26155656262,145309.0803581294,0,193,3012,1
-1567.9975722678466,213.7697513814222,15.079271138126837,233726.9977465712,225903.821366242,139327.38030992303,20,226,3019,1
-1585.8464539226238,229.98460513273784,12.942647915542448,236166.82796191802,226200.54359309436,133405.28246876405,10,232,2999,1
-1600.8018359100831,245.7480538091563,10.472740379013535,238552.7438643591,226427.8271879311,127591.50826748543,11,282,2986,1
-1612.3586094549707,260.8096259138736,7.658042951204297,240836.45074283358,226584.46123145035,121939.70487758852,27,331,2942,1
-1620.0212024110297,274.8947613118999,4.504255444751798,242965.83673883966,226670.60437322344,116508.55517601207,27,436,2873,1
-1623.3281324728455,287.70295321301506,1.0304005815869337,244884.91661386992,226687.98141986577,111361.452142453,32,465,2800,1
-1621.8780468446037,298.9137462798902,-2.737370236239965,246534.36128338904,226640.0684813486,106565.9134860455,35,611,2678,1
-1615.349164734882,308.2093697729671,-6.772010460442325,247853.54285135504,226532.10304043101,102192.89419666877,32,695,2601,1
-1603.514710004741,315.3154776241978,-11.050745016318965,248784.80696452677,226370.94339461072,98315.71274271168,21,836,2469,1
-1586.255365132671,320.04118293301866,-15.556926168237098,249278.66273021934,226164.93867241405,95008.83473046143,27,962,2379,1
-1563.5625953795216,322.3009976019414,-20.273121258341348,249298.61041662638,225923.9923265554,92346.71444273656,18,1100,2272,1
-1535.5300837794298,322.1223436303141,-25.162959958940213,248825.71919202615,225659.85282552472,90402.37060096841,3,1208,2180,1
-1502.336800583771,319.6460434083194,-30.148493957524977,247862.09293448005,225386.44842053257,89245.90116597437,24,1361,2028,1
-1464.2232953905475,315.11646301410246,-35.093093051728715,246431.95093402077,225119.82461044952,88943.11214491651,22,1531,1910,1
-1421.4652860896313,308.85682140741716,-39.79620163956798,244580.61646607684,224877.19836482158,89553.980760797,0,1636,1751,1
-1374.3593157596006,301.23676468364096,-44.0015383688422,242372.43140792268,224675.0938270435,91131.19958541106,11,1723,1693,2
-1323.2298848734592,292.6392349407477,-47.418299080379676,239887.40468895264,224526.47695701793,93718.87976467353,7,1784,1625,2
-1268.4507519564947,283.4248043829474,-49.75387612031335,237215.8375362708,224436.8699229774,97350.7990334225,11,1871,1543,2
-1210.4669702998908,273.89944755218164,-50.74800517096256,234452.15509118856,224400.6993942747,102048.1345206318,6,1910,1501,2
-1149.8065203336769,264.2949151990611,-50.19802339781411,231689.08167522025,224399.14034679128,107817.21467153,9,1978,1447,2
-1087.0773579319662,254.7605619780328,-47.976148748085116,229011.65466383667,224399.36511550396,114647.70172306761,10,1986,1434,2
-1022.9550137281215,245.3649593281681,-44.03967875274777,226492.16770897777,224355.03794535965,122511.6887305872,11,2008,1425,2
-958.1621942560802,236.11039402284783,-38.43185925538771,224187.61450515827,224208.84519437817,131364.52018040215,0,2016,1416,2
-893.4366947487863,226.9594998416538,-31.275413454251666,222139.14701336707,223897.4826924672,141147.45560301543,0,2012,1418,2
-829.4983293950502,217.86479511588806,-22.763194073087984,220372.82907211035,223357.62129985576,151790.65247766735,0,2011,1421,2
-767.0263046480686,208.79564216123305,-13.14479544733458,218901.8768022318,222531.92203787758,163215.68438255915,0,2011,1420,2
-706.642010818835,199.76455027640247,-2.7042260309560953,217730.31470586182,221375.65430876357,175338.37577659258,0,2011,1415,2
-648.8954015025037,190.84594493869534,8.26849129807282,216856.67124050352,219862.5422998866,188071.47112071826,0,2010,1420,2
-594.2584170143296,182.17352917857187,19.508020134744875,216276.17344967066,217987.51767713434,201326.76572058938,0,2010,1424,2
-543.125227641441,173.91528435727466,30.805593391117778,215981.2173885345,215766.18981055822,215017.69262552809,0,2011,1419,2
-495.8211769282719,166.24149326318602,42.03010963800103,215960.7332111942,213232.1108461797,229061.7854359606,0,2009,1421,2
-452.6204600937436,159.2975204795259,53.1250846324881,216199.29607251272,210432.00113389757,243382.13090002417,0,2010,1421,2
-413.76538407354843,153.18229374325625,64.08562314068861,216676.77294414164,207418.94673030492,257908.38671369932,0,2010,1417,2
-379.4784599814705,147.93583108338183,74.93179838954921,217368.89405572455,204245.91361439502,272577.0773446252,0,2010,1423,2
-349.96402165902066,143.5382973248687,85.68857729588625,218248.7262235728,200961.75128805253,287330.70171902946,0,2010,1418,2
-325.4033922428523,139.91585574142522,96.37147269264075,219288.6785285982,197609.09594693463,302116.42567552574,0,2008,1419,2
-305.94802688543797,136.95108278622212,106.97690130005365,220462.8175759259,194223.49997272118,316884.7944025891,0,2010,1419,2
-291.71107547010877,134.49858980780823,117.47873115104898,221749.43497035158,190833.77000557372,331588.43635324703,0,2010,1424,2
-282.75948915125355,132.40136368215806,127.83142122959893,223133.11221891246,187462.97413157285,346180.9495095432,0,2010,1418,2
-279.1100878858637,130.50357179036644,137.98014681732863,224605.37159154878,184129.7146095879,360616.3689254363,0,2005,1421,2
-280.72924035221547,128.66065345807166,147.87518819271918,226163.91666809356,180849.60016092684,374849.48820483097,0,2009,1418,2
-287.5349879848896,126.74620804696082,157.4830022393783,227811.0396041808,177636.6089826917,388836.36369638005,0,2009,1421,2
-299.40231624630235,124.65392940340357,166.7906663566352,229551.52528218596,174503.90381186112,402534.6894424841,0,2008,1417,2
-316.1707601078561,122.29585855838668,175.80670015506917,231390.17097403025,171463.99183164307,415904.6363063127,0,2008,1419,2
-337.6506881738655,119.59960156342798,184.55949925615403,233329.51312147846,168528.49332713374,428909.62837868935,0,2006,1419,2
-363.6272415433282,116.5054821052386,193.09201402585956,235368.30597227125,165707.67644204036,441516.4768312661,0,2008,1419,2
-393.86385522730916,112.96294856684462,201.45336387371256,237500.62050876737,163009.77816837828,453695.44971348194,0,2009,1418,2
-428.104912434019,108.92651645017214,209.6907390485335,239715.38399891718,160440.48568144385,465420.18242150254,0,2012,1423,2
-466.0780640548597,104.35211421519853,217.8429725646515,241996.38491678532,158002.8919321931,476667.1250449917,0,2011,1417,2
-507.498503548534,99.19404348045815,225.93421990260802,244322.63337742657,155697.71734144122,487414.9983932608,0,2008,1421,2
-552.0729390848802,93.40333981868739,233.96751125778647,246668.7558090289,153523.5596718307,497644.27479444304,0,2008,1422,2
-599.5010744477872,86.92755749905578,241.91888138472882,249005.36835396223,151477.10225533025,507336.61248190084,0,2008,1415,2
-649.4766293063714,79.71030187693303,249.73211717891286,251299.68262255986,149553.2734778728,516474.6278388611,0,2009,1420,2
-701.6880567797062,71.690011994515,257.31560130390227,253516.25406796578,147745.51405699534,525041.8038911833,0,2009,1419,2
-755.8189434986306,62.799692412510694,264.5441291425065,255617.72607730996,146046.37503927512,533022.3008342641,0,2009,1417,2
-811.5494574306459,52.96938800972191,271.2659326997371,257565.6359685725,144448.44923740413,540400.944598895,0,2015,1418,2
-868.5568494310896,42.13030468301815,277.30989048070603,259321.06219220127,142945.36476784217,547163.2313687206,0,2008,1417,2
-926.5154652083786,30.215998618448275,282.48923338738405,260845.18291715765,141532.670917851,553295.3059961675,0,2007,1417,2
-985.1001656256927,17.15819885069267,286.60553135831844,262100.35344417952,140208.6693005628,558784.3764925777,0,2008,1418,2
-1043.9906543498876,2.8806781855460075,289.4565212115259,263051.65486121207,138975.08165361284,563619.2541574426,0,2007,1415,2
-1102.8727925883607,-12.704702308217106,290.8471479864292,263668.4644050988,137837.26310351584,567790.320945073,0,2008,1421,2
-1161.4378797219467,-29.698459910140016,290.60308545852877,263926.01794528734,136803.89815911194,571288.9931111925,0,2009,1419,2
-1219.379712838556,-48.210462420761026,288.5833222145009,263806.69276496506,135886.4114340747,574107.0302044656,0,2009,1419,2
-1276.3904554971064,-68.35420131966596,284.68709675933457,263300.5778116783,135098.1237657889,576235.8369167643,0,2009,1420,2
-1332.1593711922715,-90.2392533307881,278.8546086849316,262405.443595686,134453.05814411503,577665.86038547,0,2010,1416,2
-1386.3734969273712,-113.96287078419185,271.06385681147873,261126.42746163678,133964.76793279414,578386.1352301815,0,1986,1436,3
-1438.7180475274158,-139.60216420333157,261.32614766464803,259475.46489321275,133645.59999609512,578383.9784187592,0,1995,1427,3
-1488.8783580448155,-167.20796827650273,249.6820466167614,257470.43887582512,133506.40218274633,577644.8363441479,0,1997,1430,3
-1536.542909368198,-196.80034857774018,236.19862649619128,255134.36810364205,133556.6380946833,576152.2868450398,0,2001,1434,3
-1581.407196201137,-228.36421246809172,220.96655943333408,252494.88080547858,133804.83207636207,573888.1992875147,0,1993,1429,3
-1623.180551992865,-261.84325321484,204.09528414063826,249583.87422476194,134259.05407938844,570833.0562081106,0,1986,1437,3
-1661.5924342707467,-297.13208394885936,185.70880009990307,246437.3957478594,134927.11243194545,566966.4403674232,0,1992,1437,3
-1696.394443332345,-334.0677122908605,165.94537234919358,243095.64972797807,135816.368209098,562267.6913426756,0,1981,1437,3
-1727.3607291827739,-372.42126270049533,144.9604375840255,239602.72830534374,136933.37408375533,556716.7359622733,0,1988,1440,3
-1754.2889149247862,-411.89066510401835,122.93064676333199,236005.98873593367,138283.61558185116,550295.0969188277,0,1993,1438,3
-1777.003405563364,-452.09662207589537,100.05772530428628,232354.9493191127,139871.58269174438,542987.0837522633,0,1990,1439,3
-1795.3636152723343,-492.583713618365,76.57124243439296,228699.46280558617,141701.18847717522,534781.1700332601,0,1992,1433,3
-1809.2743251162926,-532.8250070804692,52.72995167263302,225087.7943415609,143776.19917667058,525671.5599604016,0,2000,1431,3
-1818.695308557135,-572.2310591285094,28.820528582673145,221565.2031781595,146100.31772979986,515659.9260556203,0,1995,1437,3
-1823.6510741277466,-610.1657644637419,5.153048076595891,218172.82166049277,148676.84574851574,504757.2777801441,0,1989,1439,3
-1824.2382026305768,-645.9624286068138,-17.944208950108187,214946.93730785235,151507.95914851612,492985.7947499983,0,1978,1479,3
-1820.6259888632162,-678.9327425080764,-40.130257117305874,211918.80192040172,154593.54853610665,480379.9930572907,0,1982,1443,3
-1813.0505411507947,-708.3702065024684,-61.05992323503784,209114.51681095676,157929.67413103953,466986.7495227904,0,1979,1445,3
-1801.80678782764,-733.5516849457448,-80.39325474995907,206554.7252346351,161507.0558583719,452864.8785450323,0,1979,1451,3
-1787.2402687334093,-753.7444049460802,-97.8036839731062,204253.8656194518,165310.13169646298,438084.798130392,0,1983,1446,3
-1769.7345930528343,-768.225247027021,-112.98783138212957,202218.7155834881,169316.84377857827,422727.995235724,0,1984,1441,3
-1749.6945577652602,-776.3086404355837,-125.6757450969145,200446.87557998672,173498.9916892538,406886.82967521757,0,1958,1463,3
-1727.5298130625108,-777.3840851786247,-135.635790129133,198926.16465244765,177823.3666461512,390665.11461025703,0,1949,1470,3
-1703.6413191822985,-770.9677945161852,-142.67155384139835,197635.02292477927,182253.89811735466,374178.8220664024,0,1954,1462,3
-1678.411659676232,-756.7519024703255,-146.61901064130205,196543.2336745907,186753.6685898352,357556.60579989955,0,1956,1460,3
-1652.1959534552846,-734.6360195400229,-147.36313224215655,195612.34330878645,191285.12372239286,340939.2930918997,0,1972,1461,3
-1625.3098976295892,-704.7520965161999,-144.876319637408,194796.09879972631,195808.26392591652,324477.37852124515,0,1971,1462,3
-1598.0209308416224,-667.4905137928968,-139.25356258199994,194041.75044180482,200278.19055945324,308327.9216667896,0,1963,1463,3
-1570.5483007035907,-623.5166150487036,-130.72912066029818,193292.94446197615,204643.93983492017,292651.32336085563,0,1974,1451,3
-1543.0698092909843,-573.7689114977361,-119.68448998401553,192494.21762463122,208849.46878288605,277606.2475886909,8,1983,1445,3
-1515.729552919406,-519.4400192515341,-106.65263814476214,191595.7537632589,212835.98795517613,263343.5182780011,63,1994,1435,3
-1488.638999870257,-461.9365831497801,-92.3014500509258,190557.62727490763,216545.3674139725,250000.108894637,331,2002,1428,3
-1461.867573068067,-402.81853832804086,-77.38360779733536,189353.81427217773,219925.08943054706,237692.38550776936,973,2001,1431,3
-1435.4308811450744,-343.73416234236356,-62.67122807627516,187974.83715640835,222933.58641044667,226510.35944765015,1868,2000,1431,3
-1409.2909489446392,-286.3316207504366,-48.89650933161935,186427.31163991254,225545.2044126553,216514.93303217657,2346,2000,1433,3
-1383.3749102012007,-232.10683510186536,-36.70209858031321,184730.8796124196,227755.61045099795,207736.86692041246,2488,1999,1432,3
-1357.6022217038367,-182.22043020628826,-26.608188630965657,182915.5072764246,229586.28476120526,200176.60243173203,2543,1996,1432,3
-1331.9073321639435,-137.35536349182797,-18.98406921371708,181022.60366544235,231084.9763154581,193805.66744223677,2649,1984,1440,3
-1306.2665759595718,-97.68567509010293,-13.990140178850085,179109.60638056137,232320.33299894875,188570.6209101843,2554,1991,1434,3
-1280.7443235602298,-63.00345977921249,-11.51109109091904,177252.30618834903,233371.88157917096,184399.42795406102,2565,1994,1438,3
-1255.5371295952352,-32.91942842453895,-11.148187758308694,175540.20862255918,234319.35236721375,181207.77059806188,2555,1988,1437,3
-1230.9685624270676,-7.004359460419945,-12.300411212712632,174064.95611736277,235233.0272146055,178903.61989295366,2494,1995,1431,3
-1207.4248875052385,15.148331452465436,-14.29904929316371,172905.37895218265,236164.05050518856,177391.5511346504,2450,2008,1421,3
-1185.2760149658018,33.90543022478921,-16.522171003944123,172116.30233427533,237137.02217138716,176577.53143060315,2489,2010,1421,3
-1164.8180642733334,49.60456225602632,-18.450184114912968,171725.96772959162,238148.78355002418,176372.95784794012,2469,2010,1418,0
-1146.238624137498,62.57544069269224,-19.686486360879744,171739.8124594735,239173.06731187654,176697.2891203591,2539,2004,1431,0
-1129.6042731498835,73.15567928567273,-19.96894277404629,172145.65527454336,240167.08492345427,177479.0515962281,2621,2021,1417,0
-1114.8718216833267,81.69361398236103,-19.174441627726992,172917.81599948596,241077.63289679278,178655.15869754113,2673,2017,1416,0
-1101.9117732145503,88.53824805853658,-17.314121373850718,174020.550359962,241847.16126779007,180169.34069365278,2699,2025,1422,0
-1090.531079597091,94.02042411728145,-14.519295455735392,175411.11421231861,242419.5972231476,181970.91084573115,2734,2042,1419,0
-1080.4975583772946,98.42968853821078,-11.018288315858705,177042.35977478407,242745.98172561108,184014.54442902663,2741,2060,1415,0
-1071.5731463637158,101.9941965988441,-7.1033670968078155,178865.35748153992,242791.216241964,186260.58742550077,2728,2047,1423,0
-1063.5467313907236,104.87414765736455,-3.0931187854651347,180831.8357730355,242540.54770671765,188674.88309155576,2685,2069,1419,0
-1056.2541193248887,107.16943853545678,0.7024896498177542,182895.82631438348,242002.69800044684,191227.90234802046,2686,2084,1419,0
-1049.5858755394272,108.93518112262137,4.01855594156916,185014.94409813112,241208.19806302543,193893.68521976305,2687,2082,1416,0
-1043.4835705201108,110.20283883684156,6.674606641850433,187151.87873482966,240203.57904608716,196648.84997355277,2638,2082,1423,0
-1037.9250424902575,110.99913625429339,8.598887011336881,189275.6576275216,239043.97888672794,199471.76455325095,2627,2069,1432,0
-1032.9069913257897,111.35251857065755,9.819981551748427,191362.14165064282,237785.56560862492,202342.10082576444,2573,2059,1422,0
-1028.429769991388,111.29122424215124,10.431832545674581,193393.85737466946,236477.64545013552,205240.69468278866,2556,2068,1423,0
-1024.4857413464558,110.84342046550809,10.555046651570503,195359.34472632094,235156.64601451662,208149.3223233555,2492,2069,1421,0
-1021.0538120318515,110.04184532476592,10.30756643575717,197252.02255822174,233844.42364025975,211050.2836557428,2421,2103,1424,0
-1018.0988604699437,108.92968355300741,9.782461843265756,199068.71816343488,232550.16719585654,213926.04743221618,2296,2085,1421,0
-1015.5730915584992,107.56362527781947,9.034144073828458,200808.26330767947,231273.81417897838,216759.15571490937,2162,2084,1424,0
-1013.4190576886439,106.01113956126598,8.077709150105127,202470.3140675222,230010.0709688968,219532.57065512432,2096,2089,1424,0
-1011.5747843972069,104.34314236049721,6.89878905408852,204054.23368047355,228752.9376278513,222230.51671458478,1926,2097,1422,0
-1009.9795531849774,102.62687808757951,5.466824217768833,205558.18413453654,227499.53816358963,224839.30824082647,1784,2103,1421,0
-1008.5788949316602,100.92162426782532,3.748358629038624,206978.8162769471,226251.85810640777,227347.70322005425,1531,2098,1419,0
-1007.3291946126234,99.27598710121805,1.7205367107190328,208311.63302170523,225016.5414962844,229746.90700247153,1399,2097,1432,0
-1006.2014097709219,97.72595888910887,-0.6187131881732659,209551.70857146938,223803.63000201588,232030.35892129352,1214,2116,1442,0
-1005.1816224462092,96.29419568126345,-3.2487448280743956,210694.58498847965,222624.6156559155,234193.29408656602,1198,2108,1444,0
-1004.2673061821323,94.99065477234579,-6.1316793871051205,211737.3487202326,221489.96866811038,236232.19902592534,1072,2117,1435,0
-1003.4613597627355,93.81472100050574,-9.220373932665195,212679.48544122756,220407.0526157313,238144.33128032088,953,2139,1428,0
-1002.7667737578621,92.7592478837509,-12.46609574099088,213523.0420255001,219379.3200679694,239927.46637526574,836,2176,1465,0
-1002.1826795212718,91.81560295105893,-15.825737704718462,214272.1778341928,218406.62000102593,241579.93500669746,695,2144,1436,0
-1001.7019678473988,90.9770140073821,-19.266509449863747,214932.47051042368,217486.0760630012,243100.79371930007,597,2173,1616,0
-1001.3112675834215,90.23866488685339,-22.76536847985611,215510.16208498602,216613.35006450253,244490.018006772,543,2145,1473,0
-1000.9933526586227,89.59553280083415,-26.303974899371383,216011.38468202,215784.18907019476,245748.75441573912,476,2166,1643,0
-1000.7308689845831,89.03968212899248,-29.862856724149484,216441.5570141748,214995.73395706163,246879.52829435584,421,2145,1466,0
-1000.5101394902789,88.557805874683,-33.417856040645816,216805.19022658846,214247.0128927208,247886.27972423605,339,2190,1637,0
-1000.3242071966853,88.12936481967535,-36.939288963231135,217106.08976728376,213538.63152537457,248774.26847134024,283,2159,1653,0
-1000.1740211692165,87.72618422033841,-40.392847374566315,217347.7442293821,212872.1102373146,249549.8878866192,274,2163,1684,0
-1000.0670170177389,87.31424879397233,-43.74176676503958,217533.76865685225,212249.19935271432,250220.3825264004,180,2187,1672,0
-1000.0139085232281,86.8573671534619,-46.94995937802986,217668.34098132182,211671.2623318937,250793.50622703135,131,2185,1687,0
-1000.0256436998341,86.32101238622836,-49.98482162422758,217756.45084245448,211138.8934232104,251277.20900151532,124,2188,1698,0
-1000.111728187905,85.6747530197693,-52.8187459153499,217803.85420372852,210651.88419779454,251679.430424282,137,2196,1690,0
-1000.2796728396086,84.89324134688454,-55.42975874781899,217816.81855298995,210209.3985034933,252008.0030310355,84,2214,1689,0
-1000.5350146375386,83.95627424363802,-57.8015854039731,217801.76945421993,209810.19504130757,252270.61436280643,29,2227,1702,0
-1000.8815612633125,82.84815948847545,-59.92293177244459,217764.98205091374,209452.81083547254,252474.76911095888,98,2257,1730,0
-1001.3216974553668,81.55671327501483,-61.78614749922484,217712.41236611092,209135.64798315032,252627.71649306576,27,2267,1730,0
-1001.856792469687,80.07257514362658,-63.38578175230306,217649.62289465757,208856.95868640585,252736.34590536135,36,2269,1737,0
-1002.4875340530559,78.38941867236808,-64.71799728478531,217581.7379511316,208614.79213894528,252807.09156075746,11,2271,1748,0
-1003.2135995549319,76.50480554943387,-65.78227647673037,217513.3911998315,208406.98295453397,252845.88779447397,16,2259,1773,0
-1004.0333735971352,74.41968957076908,-66.58325123895622,217448.7617483616,208231.20324375154,252858.14030251713,0,2273,1797,1
-1004.946001643098,72.13485755329181,-67.1271277047448,217391.83996904021,208085.02140561998,252848.57190584263,0,2287,1789,1
-1005.9551369983926,69.64806919507504,-67.41444545993328,217346.6344162678,207965.8422047183,252820.85229789195,0,2210,1844,1
-1007.0703112600047,66.95734468494126,-67.43822062808614,217316.79949236193,207870.78384383596,252777.2275318714,2,2194,1837,1
-1008.3046153215632,64.06872676642824,-67.19029763174706,217304.6786252747,207796.88104951556,252718.5077919846,0,2143,1884,1
-1009.6721966354488,61.00176960811799,-66.66849383554185,217310.43918412115,207741.786847424,252644.39820254513,0,2200,1861,1
-1011.1885689694526,57.788615896945025,-65.87700095652086,217331.97724930476,207704.50184296505,252553.78120635965,0,2224,1881,1
-1012.8723526940569,54.46790309143111,-64.82126191807207,217365.52265074928,207685.51828962803,252444.6828913631,0,2173,1919,1
-1014.7458851008824,51.07795060094385,-63.50360148061464,217406.35620430933,207686.2997163708,252314.02237431015,0,2142,1963,1
-1016.8345226625157,47.652928649502,-61.92271582389975,217449.23164226604,207708.55222599985,252157.3964141251,0,2173,1927,1
-1019.1667591176522,44.221586017636305,-60.07572206152405,217488.57497331768,207753.70379089843,251968.93778402757,0,2104,1895,1
-1021.7774030178579,40.80598587669443,-57.961241585827686,217518.71516839758,207822.6438220644,251741.08108542385,10,2106,1892,1
-1024.7114655003963,37.419842071571765,-55.584749169650735,217534.14972450645,207915.60349206455,251464.2440727972,0,2016,1933,1
-1028.0219763992836,34.0686602222702,-52.96626787165413,217529.84617235366,208032.08331076984,251126.67742539,8,2053,1906,1
-1031.7599253779094,30.75496060040093,-50.14296436374293,217501.78528689686,208170.8771107412,250714.6699943421,2,1920,2005,1
-1035.964256519441,27.486572934600574,-47.16183404342252,217447.62602538473,208330.4052320331,250212.9716532816,7,1912,2033,1
-1040.6604744494764,24.28039768340842,-44.0696310031015,217366.95675099408,208509.54629280424,249605.14999334872,9,1871,2087,1
-1045.866675708823,21.16086861486138,-40.90496042525881,217260.92938031646,208708.71267166536,248873.87696891278,13,1767,2165,1
-1051.5992345855652,18.158909974030593,-37.692658109558536,217131.62150795857,208930.49218425283,248001.34627292902,0,1795,2171,1
-1057.8742298055442,15.312654917854589,-34.44413099488436,216981.51346616016,209179.49151290976,246969.99321423148,9,1742,2256,1
-1064.7066834653967,12.667830084743136,-31.162742978033663,216813.30382100388,209461.5890257354,245763.54285598572,10,1688,2286,1
-1072.1106210066846,10.277021621530398,-27.84847304706133,216630.07219163715,209783.0382635254,244368.0919283623,0,1628,2337,1
-1080.1004175653782,8.198161023769716,-24.50141611361173,216435.51432892482,210149.70120972366,242772.92926666632,7,1595,2371,1
-1088.6919013866711,6.493022930630162,-21.126294929765617,216234.0593372452,210566.4273021783,240971.079043261,0,1529,2375,1
-1097.9027559368233,5.224986320425787,-17.737152568136192,216031.0295398239,211036.61942219874,238959.52957679977,0,1408,2466,1
-1107.7530740710617,4.45430575481737,-14.360055195087662,215833.06869693805,211562.0077704132,236739.05441919068,0,1376,2522,1
-1118.266167509486,4.231963980454915,-11.032904884985857,215648.7612436664,212142.51296852628,234313.7464425972,0,1244,2559,1
-1129.4692122215722,4.595413710882858,-7.80303966871105,215489.14245221796,212776.17650412171,231690.3777332521,0,1222,2611,1
-1141.3928544769713,5.568326718165081,-4.723242161889018,215367.93855655278,213459.257756854,228877.58014644127,0,1204,2652,1
-1154.068232234763,7.164328851418488,-1.8479409698477032,215301.4870183476,214186.52658382102,225885.17233409232,5,1081,2684,1
-1167.5218474094227,9.39183722455577,0.7699508588072191,215308.2257523368,214951.82674818704,222723.96287276823,3,1019,2697,1
-1181.772058134843,12.25454747187826,3.0871541883985683,215407.84287653238,215748.9780004891,219405.88251837363,0,983,2737,1
-1196.828952859913,15.745909180976662,5.080324851016906,215620.31602931078,216572.7024271272,215944.01510296646,0,989,2760,1
-1212.6948445560677,19.843934922313522,6.744582527141751,215964.8453187865,217419.26977311578,212351.7657849176,0,882,2801,1
-1229.3642850575948,24.51273061596471,8.08410140126659,216459.04808284994,218286.95785091768,208640.97780080087,1,846,2817,1
-1246.8245361544953,29.709774502364073,9.111097252241187,217118.97956722026,219176.24113787184,204820.26286124263,0,759,2850,1
-1265.0550794918936,35.39500234809301,9.851228860103278,217959.57880980725,220089.23518904252,200894.64628774632,2,710,2884,1
-1284.0242536612882,41.53921696863745,10.34474079048016,218994.76454234964,221028.28893444585,196866.27168750984,0,675,2893,1
-1303.6835319593383,48.128750651173334,10.64164174053158,220237.00965990912,221994.4060028118,192735.54492823538,2,519,2900,1
-1323.961603577424,55.164297800354376,10.793065711097633,221696.55039130663,222986.17076047324,188502.42155914893,13,495,2924,1
-1344.75946072725,62.65584864280034,10.840908037542517,223380.4437228172,223999.2445636016,184167.67980359562,1,418,2944,1
-1365.9465744402082,70.61628137419497,10.808377138189908,225291.74052505076,225026.48800472874,179733.98312560236,0,420,2959,1
-1387.358354693326,79.05495003362871,10.694064557930378,227428.9897418672,226058.77282984165,175206.6179758664,7,359,2984,1
-1408.7945348587812,87.97279219503669,10.471014970349454,229786.1006457186,227086.00021122195,170594.04077149055,0,279,2985,1
-1430.018114283411,97.35927629325509,10.08993974718785,232352.46125893187,228097.86514333583,165908.4047857534,0,269,3002,1
-1450.7548082965181,107.19014449497479,9.4846383542842,235113.18145681187,229084.39180160785,161166.10047637514,3,239,3009,1
-1470.6922130648775,117.4250700449261,8.577562506620838,238049.21759548647,230036.26307240804,156388.3093757781,14,235,3003,1
-1489.4792394687986,128.00390918330757,7.284519225518303,241137.25869005092,230945.02001314118,151601.35720226524,24,264,2996,1
-1506.7277839845015,138.84079359298852,5.519706994640682,244349.53952549922,231803.40768490016,146836.5897462916,18,287,2984,1
-1522.0174077403742,149.81764321560925,3.2022136621678166,247653.6650338678,232605.88905295916,142130.0030235199,23,314,2957,1
-1534.9056365923223,160.77944792873396,0.2649442758947686,251012.43994872514,233349.1599872427,137521.81804216906,26,389,2925,1
-1544.945242973635,171.53266923277633,-3.3346339806500263,254383.7175887159,234032.5691272031,133055.7979343148,14,472,2838,1
-1551.7020560155934,181.84667483530987,-7.606896636510636,257720.2314814368,234658.24732276084,128778.57079336303,35,553,2797,1
-1554.7698461703208,191.4603894159002,-12.529664645909458,260969.8042827713,235230.74113338243,124739.35716446795,26,584,2716,1
-1553.7859903335996,200.09905649263018,-18.05298129052871,264076.50672522123,235756.23840517265,120989.97393851835,41,750,2605,1
-1548.4469050381767,207.49957241846437,-24.10471661126957,266982.6132905072,236241.75972111736,117584.99762308743,32,795,2526,1
-1538.5209006216344,213.4399906481626,-30.595416371379518,269631.49931363884,236694.65488662073,114581.93667177537,32,950,2413,1
-1523.86000601862,217.77047828399546,-37.42156707663382,271971.8812929676,237122.51769017373,112041.10325388145,31,1107,2259,1
-1504.4077736026798,220.4353537418082,-44.465020008798206,273962.07189689856,237533.47029054322,110025.19316473916,10,1203,2198,1
-1480.1957318765637,221.4767570043478,-51.58732470511834,275572.91567478824,237936.68216818344,108598.49556542683,31,1411,2036,1
-1451.3286055809494,221.02493071456402,-58.61972071660239,276789.8724441646,238342.89834318805,107825.51794126023,27,1488,1949,1
-1417.9681913268062,219.28506433603027,-65.35295507398519,277614.4324149834,238764.6053607573,107769.3546765629,11,1635,1790,1
-1380.3219726928705,216.52064811696854,-71.53447302165641,278064.29156125983,239215.32621322374,108489.91248866748,22,1697,1746,1
-1338.635557783775,213.02804683552307,-76.87712368105397,278172.30119981745,239707.82865984968,110041.71289388087,29,1801,1653,2
-1293.1908903361546,209.10759456328765,-81.07510968336696,277984.6312607313,240251.76176911584,112471.70702390381,26,1825,1603,2
-1244.3114403694806,205.03868715836853,-83.82333145485124,277557.73853365297,240851.07663557396,115817.48416090656,1,1868,1546,2
-1192.370029471496,201.05792725731595,-84.84170235844478,276953.5017340452,241501.14077589352,120105.52842427752,8,1874,1531,2
-1137.7962753693548,197.34213849405546,-83.90015992738509,276233.76480948244,242186.25118188755,125349.57273428589,10,1928,1487,2
-1081.0821426815507,193.99994855223457,-80.837428905143,275455.6445822648,242878.59324532995,131549.65435137044,1,1968,1455,2
-1022.7825218465542,191.07039130292202,-75.57366368541128,274667.4332713378,243538.7871338548,138692.11329633417,11,1996,1427,2
-963.5097133471868,188.52723310818763,-68.11737818972101,273905.62472070294,244117.6168191384,146750.15614622142,10,2010,1424,2
-903.918606479629,186.292200663269,-58.56441707564177,273194.0168615062,244559.24008507616,155684.9770803966,0,2016,1419,2
-844.6804685429458,184.2589352638482,-47.088752363962634,272544.583733379,244806.2492456907,165447.70908834055,0,2012,1419,2
-786.456653192247,182.32027108905984,-33.928499723313585,271959.2258168691,244805.20950913607,175981.36636908716,0,2012,1417,2
-729.8796910203512,180.39220383149342,-19.36773446498464,271432.0128982868,244511.6556084519,187222.28271409264,0,2012,1419,2
-675.5354377617169,178.43606944872766,-3.7115012014501114,270951.8748956753,243895.09994581676,199101.7592639321,4,2011,1423,2
-623.9475789936143,176.47443710674187,12.7412349330468,270505.10728023003,242943.1319665422,211547.705278338,0,2010,1417,2
-575.5706461872555,174.58898216041476,29.722460593156473,270077.0656624759,241662.49628748916,224486.1542987821,0,2009,1419,2
-530.7904420180887,172.8985004932399,47.01895581628176,269653.1312827539,240076.7137930813,237843.40358065363,0,2010,1417,2
-489.93176414253605,171.52932530592858,64.48723442374721,269219.0575250882,238221.68191226543,251547.9821916038,0,2009,1417,2
-453.27339752529036,170.58699991096378,82.04760543102314,268760.91312687873,236140.19282462852,265531.5421530888,11,2016,1417,2
-421.06274026935466,170.12894153370385,99.65843105332522,268265.1534349879,233875.55600821777,279729.27373740403,0,2010,1417,2
-393.52231730965525,170.1443952850688,117.28460433526637,267719.2315353007,231466.1481471009,294079.87323780794,0,2009,1416,2
-370.84895829812245,170.5522709609826,134.87220024448567,267113.14298972767,228942.53412356498,308524.9810830007,0,2012,1415,2
-353.21067930920645,171.21619583480165,152.33277779600405,266441.97883395216,226326.48675389908,323008.6948213469,5,2011,1420,2
-340.7428999620631,171.96540653746717,169.5401444021138,265708.4820010434,223631.29816072847,337476.90066870785,4,2009,1418,2
-333.5401717465844,172.61304617293533,186.34380537632836,264924.372373556,220863.81437965194,351876.25932707294,5,2010,1421,2
-331.64353669374003,172.97139256593886,202.59624589394508,264110.18834640563,218027.97570942453,366153.66366732924,8,2011,1421,2
-335.03205202875955,172.86352054024655,218.1791477915615,263294.0070526358,215128.25822267903,380256.2404712076,2,2010,1418,2
-343.6240153000771,172.13107572881077,233.01586536917446,262509.10086633527,212171.50365524337,394131.8503899932,0,2009,1416,2
-357.28603349256736,170.63988379046825,247.07183085028902,261790.73014352945,209167.0753121953,407730.573206148,0,2008,1421,2
-375.84439689056074,168.28254478441622,260.34947907877483,261173.31258621207,206126.0963949669,421006.2946344415,0,2011,1415,2
-399.0933497677536,164.97636774169044,272.8815148043907,260688.8142475176,203060.20605738318,433917.4050408928,0,2015,1420,2
-426.7981924074762,160.65790029890394,284.7244773143473,260365.83274974558,199980.01500441256,446427.04584201897,0,2012,1416,2
-458.6942622472703,155.2778201594624,295.95266303174714,260228.85479592977,196893.94795695695,458502.89315271506,0,2012,1418,2
-494.48677108588447,148.79924145657574,306.64982424373915,260297.4134851214,193808.03536639112,470116.32549721334,0,2011,1418,2
-533.8547278699958,141.19901836795648,316.8971161600736,260584.8567854203,190726.34677523372,481241.5895798978,0,2013,1417,2
-576.4552747038949,132.46987160012867,326.76054217465753,261097.02987117835,187651.61612899942,491855.0866857254,0,2012,1423,2
-621.9273530585405,122.62142807669892,336.2806524795922,261831.32454047078,184585.89758585772,501934.79719098395,0,2012,1452,2
-669.8975711897888,111.67923816167774,345.4644294476285,262776.09002429433,181531.18836804433,511460.215396236,0,2012,1419,2
-719.9859263592351,99.68257170398546,354.28083796578807,263910.3469717197,178490.03741276517,520412.4580133489,0,2011,1420,2
-771.809868126114,86.68159009855579,362.6620478084671,265203.89435599995,175466.2286100594,528774.2600873638,0,2010,1417,2
-824.9899564806043,72.73355157081721,370.5089958285217,266617.76998040726,172465.58471704737,536530.217820022,0,2009,1416,2
-879.1557904789845,57.899003238024335,377.69715181116806,268104.8618390179,169496.78723281182,543667.0555194893,0,2012,1415,2
-933.9506012108296,42.237613406099975,384.08129034051325,269610.8385248816,166571.9700464823,550173.5866950403,0,2013,1423,2
-989.0369575122319,25.801502985451734,389.5020526425836,271075.7428530748,163706.9348896005,556040.6284593227,0,2008,1417,2
-1044.1009425945556,8.627188499251801,393.79395396238436,272435.8748767795,160921.0682227132,561260.8151621276,0,2007,1419,2
-1098.8514596360014,-9.272722302231612,396.79225921217534,273625.73493372084,158236.88063539378,565828.1587120269,0,2008,1419,2
-1153.0174780641448,-27.918838847048733,398.33913644781813,274580.4170007043,155679.00019248496,569737.5927750575,0,2008,1419,2
-1206.3447691762153,-47.37194163736093,398.2894440972908,275238.1079236375,153272.98050157743,572984.5310183278,0,2008,1421,2
-1258.5923233747947,-67.73295782939941,396.51531494900604,275542.2998242861,151044.1848567172,575564.2883968422,0,2010,1417,2
-1309.5305119653242,-89.13606596757828,392.90924620086565,275444.0696770988,149016.5532927255,577471.4474680236,0,2008,1419,2
-1358.9397869221432,-111.73746598288524,387.3856155289656,274904.20055754966,147211.4902839497,578699.3167277956,0,2006,1419,2
-1406.6074243456742,-135.70029563801486,379.881891067051,273894.6932706358,145647.13203768214,579239.5254011143,0,1990,1433,3
-1452.3231622292487,-161.17602303627433,370.3610127319649,272399.83240018605,144337.77431634167,579081.7613311836,0,1994,1431,3
-1495.8748629458091,-188.2873694486473,358.8135657464825,270416.7763556008,143293.51034044995,578213.6563721957,0,1996,1431,3
-1537.0464281000982,-217.11718984214784,345.2562599581229,267955.3036341871,142520.34780744414,576620.8215067144,0,1995,1433,3
-1575.6207290477782,-247.70114403248724,329.72598082739097,265036.7841302541,142020.74066745306,574287.0343331762,0,2001,1424,3
-1611.3844931827593,-280.02082142773315,312.27388052911516,261693.0456469172,141794.26752848845,571194.5819855266,0,1997,1428,3
-1644.1309214029552,-313.9970848755265,292.96393312252235,257965.41096429562,141838.4010438464,567324.7629230762,0,1995,1434,3
-1673.660711363707,-349.4843879636574,271.8762910600353,253903.5716960244,142149.466753778,562658.551330896,0,1988,1435,3
-1699.7826284706273,-386.26529347807434,249.11378232414563,249564.36485147104,142723.60554805113,557177.4280654311,0,1985,1443,3
-1722.3158895463912,-424.044434925596,224.80989706735645,245010.28228098556,143557.53583402053,550864.3821316325,0,1987,1442,3
-1741.0974388140978,-462.44408354911644,199.13688874864383,240307.16261585263,144649.17370755,543705.0865511164,0,1980,1442,3
-1755.9917979620552,-501.0042762516336,172.31205929715972,235521.64400567173,145998.02014003246,535689.2486182563,0,1986,1443,3
-1766.9013018558014,-539.1911195931663,144.59912502308677,230718.9526674815,147605.1299971253,526812.0815760894,0,1979,1451,3
-1773.7780062342804,-576.414518809333,116.30362591738887,225960.70760253925,149472.7037506027,517075.80557886197,0,1987,1444,3
-1776.6342748734996,-612.047063810369,87.76589677570176,221303.2384865642,151603.43080901797,506491.1063264897,0,1982,1443,3
-1775.5476241297663,-645.4372217088257,59.35292774083595,216797.09212090468,153999.52715640553,495078.2609558793,0,1995,1434,3
-1770.6601697672972,-675.9190438973919,31.44698057964515,212487.30485414393,156661.35482718184,482867.67024254234,0,1988,1436,3
-1762.174158912433,-702.817535528032,4.433922240670692,208413.91564082998,159585.84591084352,469900.177505714,5,1982,1443,3
-1750.3439454061393,-725.4484773366854,-21.306140848611104,204612.3369159427,162765.01855125563,456227.32687378454,0,1976,1449,3
-1735.467592452448,-743.1192569714455,-45.40878058202899,201113.15028908532,166184.66146225366,441911.2690174573,0,1972,1452,3
-1717.8821856812674,-755.1365459312149,-67.53417755505903,197941.4113726092,169823.45246125545,427024.8219874333,0,1975,1448,3
-1697.958603032225,-760.8268600972036,-87.37036183310327,195115.64677938796,173653.16750374564,411651.96512021765,0,1984,1440,3
-1676.0892706477532,-759.5755586674347,-104.63034121614726,192646.55535406922,177640.31136199896,395888.19208103715,0,1978,1448,3
-1652.6727893106088,-750.8729084276113,-119.04681211138222,190535.8532120304,181748.329656039,379840.90349917574,8,1973,1451,3
-1628.100543319777,-734.3534707515553,-130.37547931969377,188775.38401037653,185939.21211496138,363629.70578992873,0,1970,1451,3
-1602.744565265044,-709.8316205480684,-138.41836736197632,187346.00405322015,190173.883458909,347385.570584499,0,1974,1448,3
-1576.94838146276,-677.3363908865499,-143.05877928740966,186216.59748445687,194411.13137072223,331249.25373890036,0,1984,1445,3
-1551.0223256683068,-637.1475267888748,-144.2896946232959,185344.42772002524,198605.52497158627,315369.37842299393,0,1980,1449,3
-1525.2411595528126,-589.8335011881776,-142.23234851262305,184677.17814549294,202705.58378161167,299899.3904827669,0,1985,1439,3
-1499.8441880863154,-536.2768234279237,-137.14938261477283,184155.82269549323,206653.38792673085,284993.9544423498,0,1987,1443,3
-1475.0360170523318,-477.66631426475425,-129.4510543931284,183718.19687376515,210386.6279935255,270804.3956021861,0,2010,1419,3
-1450.981194275408,-415.455329152892,-119.68941421141098,183303.8732236974,213843.22917316167,257471.4755564744,5,2008,1419,3
-1427.7920353276531,-351.30850512830983,-108.53583805071706,182859.22598172535,216966.75491443175,245117.75905372397,180,2014,1416,3
-1405.5157981303666,-287.0408490038221,-96.73487872858904,182340.9789101946,219711.66239341456,233842.3959324627,788,2016,1415,3
-1384.1263379088175,-224.52841446567027,-85.03663954707116,181718.01479710074,222049.32067646828,223717.45750692495,1685,2014,1420,3
-1363.526926962604,-165.5950217120324,-74.13411885964541,180971.680245165,223973.69992306703,214785.58186355224,2216,2012,1418,3
-1343.5711122769742,-111.86070704072354,-64.62112854584777,180095.42312348366,225504.81853914462,207059.49642556853,2546,2012,1420,3
-1324.0948822193975,-64.51783191643398,-56.95728185379692,179095.66579663177,226690.1877129455,200522.4141952826,2636,2013,1423,3
-1304.9374786330202,-24.116860889539947,-51.42335358750542,177995.3070729494,227604.22627948056,195128.998618394,2759,2005,1429,3
-1285.9429351238373,9.48062701481465,-48.05943542475522,176839.20167259793,228343.04196731735,190808.78688506316,2917,2014,1417,3
-1266.9751615106263,36.93267461969728,-46.62911425516948,175696.1669547174,229011.75700829213,187473.76252090733,2953,2016,1419,3
-1247.9715603107586,59.13807638611762,-46.67143817015039,174651.26475871686,229706.93385077192,185027.81865349633,2905,2010,1422,3
-1228.9995346829512,77.0068460759639,-47.60758140677858,173791.7612806124,230501.616353631,183373.7389465486,2907,2016,1421,3
-1210.2630284098539,91.34388620116346,-48.83470266284661,173194.2761806029,231436.93418143626,182417.24517907097,2917,2027,1422,3
-1192.049818713744,102.80962457370309,-49.80144785148994,172914.75282436932,232518.68704115288,182070.35119299986,2938,2025,1419,0
-1174.6558438345087,111.92380727151956,-50.06614206600588,172982.30336991625,233717.67245235213,182254.0782665595,2929,2024,1417,0
-1158.3245721614185,119.0974595444705,-49.328023219736224,173399.51783506214,234974.84835797772,182899.3563144764,2959,2025,1420,0
-1143.210071208775,124.67256447478223,-47.44089946529603,174148.255324759,236211.13656490424,183946.13479077627,3018,2037,1417,0
-1129.3630187089727,128.947813415798,-44.41537122477159,175196.6805289623,237338.06477336294,185341.61691921498,3045,2045,1418,0
-1116.7405614369732,132.18281510270873,-40.40102743261141,176504.93608889065,238267.204282206,187038.39169716186,3071,2057,1419,0
-1105.2318167771691,134.59120810059576,-35.64882982550511,178029.97022176674,238920.52806883355,188992.9899937586,3047,2045,1419,0
-1094.6861715933417,136.33521924664734,-30.47191765589249,179729.5866225705,239241.178287484,191165.31678241483,3066,2031,1420,0
-1084.9402891953564,137.52729915852703,-25.213003124192063,181564.6724327194,239200.81656716796,193518.66008608945,3051,2038,1418,0
-1075.846290274839,138.2404465330945,-20.204638817698278,183499.62189771602,238801.6560999051,196019.5164522396,3046,2060,1417,0
-1067.2962132213363,138.52510761137833,-15.71911519351063,185501.8488451733,238073.9751095619,198637.18840138864,3044,2047,1421,0
-1059.2337330042014,138.4257388617224,-11.927414268179913,187541.21784821182,237070.9023103011,201343.53121654034,3030,2059,1417,0
-1051.6487560414575,137.99033999791098,-8.885800822401919,189589.96791004666,235860.59295700878,204112.96561308534,2983,2047,1416,0
-1044.5589868508976,137.2714340145823,-6.552666634532707,191623.2454583086,234515.30678842528,206922.5873165245,2951,2064,1417,0
-1037.990907497965,136.32180392437695,-4.822253279397976,193619.76771431242,233100.78785506872,209752.0228439977,2899,2056,1416,0
-1031.9670358124386,135.19075875231746,-3.56065315883301,195562.12574084406,231669.66066571532,212582.85553419075,2840,2057,1415,0
-1026.4972089858845,133.92387649283341,-2.6401448963182776,197436.68518697433,230258.39670434932,215397.81878838953,2750,2058,1419,0
-1021.5736342998559,132.56466055869313,-1.9665197608031753,199233.20397582708,228886.8334384207,218180.078959403,2648,2069,1418,0
-1017.1709772091255,131.15554279166338,-1.4921943642228286,200944.27793287643,227560.60852683708,220912.9242456237,2575,2077,1422,0
-1013.249922115955,129.73656357369865,-1.216962479083246,202564.73259626058,226276.0961215393,223580.0078933357,2423,2089,1423,0
-1009.7618413139595,128.34221542435006,-1.1808674736166427,204091.0415512437,225025.77593889917,226165.86842034993,2242,2098,1427,0
-1006.6538437168158,126.9987712504186,-1.4487008388841867,205520.78377181973,223802.5275218398,228656.44914488844,2134,2086,1424,0
-1003.874788904512,125.72361630736476,-2.086575061809499,206852.12518662706,222602.9711560046,231039.6321237305,1973,2096,1417,0
-1001.3812998932892,124.5264310552061,-3.139354985240369,208083.41291805587,221429.4806896537,233305.6164615947,1871,2098,1421,0
-999.1417366699768,123.41120361726266,-4.61757077264839,209213.0748736717,220289.89306643556,235446.9407949734,1721,2074,1417,0
-997.1375369242138,122.37785130087568,-6.494058629377852,210239.8885511073,219195.11754172068,237458.26920032894,1633,2112,1421,0
-995.3620243238768,121.42275400829875,-8.708091691804002,211163.39997194914,218156.18359244103,239336.05835027073,1546,2103,1419,0
-993.8164742392369,120.53870821888037,-11.176524514650783,211984.27966044398,217181.9340993632,241078.15404585542,1415,2117,1425,0
-992.5044695957127,119.71545363777797,-13.810102124319123,212704.5856179183,216277.44401876171,242683.4234465441,1269,2147,1424,0
-991.4272112756352,118.94112206972481,-16.52841665848901,213327.84852625168,215443.29520654862,244151.48640594003,1171,2165,1428,0
-990.5809475060922,118.20399474081862,-19.268441903058232,213858.860051313,214676.06149918612,245482.57970673847,1024,2156,1425,0
-989.9558796565819,117.49375379193795,-21.987853512630544,214303.1944376203,213969.85163348503,246677.61204402364,952,2140,1459,0
-989.5363981060746,116.8016680498281,-24.66488841877985,214666.64574591038,213318.21554118494,247738.3485467427,849,2162,1433,0
-989.3026234783069,116.11966171649637,-27.294310723320944,214954.81845757604,212715.58400073458,248667.53825720213,797,2173,1436,0
-989.2328681897033,115.43848214497993,-29.879716755746383,215172.99665240396,212157.87714377712,249468.91470971899,698,2172,1441,0
-989.3063663226767,114.74530331209849,-32.42536743750049,215326.22987476387,211642.46553459682,250147.1376566349,584,2190,1618,0
-989.5052855110807,114.02158385708856,-34.93145717319396,215419.49632248792,211167.8163194464,250707.69904469576,499,2213,1611,0
-989.8154226381488,113.24225365342971,-37.39347484451653,215457.89451995434,210733.01612498323,251156.76987005337,509,2220,1651,0
-990.2257745154263,112.37664798136203,-39.8039031865386,215446.87809192648,210337.25447525067,251501.00700703578,441,2218,1630,0
-990.7276024505513,111.39064568833747,-42.15426261068367,215392.45737753087,209979.4546652219,251747.37109438633,460,2225,1633,0
-991.313381395021,110.24941524452446,-44.43630938862334,215301.25796230498,209658.19475917917,251902.98375241284,382,2196,1634,0
-991.9756356563015,108.9203473117127,-46.642563921054595,215180.4261730061,209371.8326311745,251975.02629675137,341,2218,1638,1
-992.7060109827698,107.37527063038254,-48.76654564728292,215037.45510884415,209118.6852795869,251970.6876446731,267,2247,1632,1
-993.4953344155662,105.5914358645614,-50.80274294733373,214879.97892244594,208897.1728118756,251897.16275957704,244,2268,1649,1
-994.3347038525585,103.55182221601133,-52.746600562971565,214715.54351358974,208705.89417695935,251761.6787812693,284,2271,1665,1
-995.2166452810196,101.24526698092595,-54.59453910693527,214551.4191359961,208543.6345872871,251571.51677485087,178,2294,1657,1
-996.1355763810909,98.66618070820009,-56.34379343590795,214394.4991994866,208409.30879886058,251333.98703762554,182,2330,1659,1
-997.0877788620375,95.81360940792358,-57.9926998782063,214251.22220605152,208301.87054338827,251056.3284943894,180,2333,1675,1
-998.0718312341363,92.69007350402534,-59.541285616508766,214127.52698526732,208220.26051271858,250745.57932932238,145,2341,1675,1
-999.0907477928703,89.30089339102894,-60.98956336665426,214028.93934976912,208163.3858157214,250408.42729137273,86,2363,1656,1
-1000.1555695305559,85.65468388378856,-62.33215262893184,213960.71437524108,208129.9868073495,250050.91871259964,47,2339,1663,1
-1001.2871260364597,81.76599364655262,-63.5544223895989,213927.6694645972,208118.39262261483,249678.04264335326,54,2303,1683,1
-1002.5128465716269,77.66027489675234,-64.63765377242314,213933.36797281844,208126.49477333797,249293.41483273407,21,2300,1680,1
-1003.8608920533156,73.37823451082251,-65.5701461232981,213979.0250724045,208152.20905802381,248899.2294415241,21,2286,1706,1
-1005.3569442678091,68.97553101211113,-66.3525286135938,214063.05273100277,208194.19048877322,248496.42826528382,37,2327,1693,1
-1007.0251861724493,64.5169653488978,-66.99267404005948,214181.5844458045,208252.29999325945,248084.8610004897,39,2269,1744,1
-1008.8911918258876,60.06797890043517,-67.49622616597219,214329.43792338448,208327.61288103866,247663.32457694848,24,2280,1774,1
-1010.9842170165812,55.68805100090131,-67.86035735233718,214500.7957203441,208422.1098044661,247229.58045028977,19,2364,1722,1
-1013.3378004883078,51.4278569045087,-68.07283098309307,214689.42545081134,208538.22908661515,246780.37471638946,3,2362,1789,1
-1015.9893521882857,47.328018387208296,-68.11398643632852,214888.74087486576,208678.38838397834,246311.35551038,0,2351,1785,1
-1018.9796451274489,43.41817785030061,-67.95944009187264,215091.9020711569,208844.62801647958,245816.86404442508,4,2339,1809,1
-1022.3522430563079,39.717096855279955,-67.5827566038332,215291.951622363,209038.4981537248,245289.66516760498,0,2276,1877,1
-1026.1527214103633,36.23398692813194,-66.95793472632772,215481.9700036134,209261.13175969667,244720.7031230924,0,2324,1877,1
-1030.4287432678334,32.971242507837324,-66.06254310629281,215655.27218374208,209513.36623070034,244099.03151377552,0,2290,1892,1
-1035.2329886567602,29.928734421884286,-64.88357293385155,215805.66542860446,209795.84626619454,243412.0036703537,5,2290,1941,1
-1040.626664220788,27.107721745617855,-63.425556457174714,215927.7658284259,210109.03164807713,242645.66416425494,0,2203,1965,1
-1046.6763791719932,24.512775168240935,-61.7153841277012,216017.5006162136,210453.0264664306,241785.3722458411,0,2195,1978,1
-1053.4432100527258,22.154375478898277,-59.79752681924113,216072.8710340348,210827.41902250797,240816.71986485829,5,2084,1895,1
-1060.9730580175165,20.05306948275866,-57.72194711517746,216094.5562543534,211231.4781061878,239726.49825197022,0,2084,1967,1
-1069.2965733750495,18.23965166807077,-55.53435712302929,216085.7682559837,211664.78779310375,238503.38767831514,0,2025,2011,1
-1078.4365759094446,16.749037799097763,-53.27213322871957,216051.40320247502,212128.00374315775,237138.32278517378,0,2053,2020,1
-1088.4147839301959,15.612657340016945,-50.962558365770484,215997.25069546342,212623.1972401813,235624.54948425456,0,1920,2087,1
-1099.2544728217622,14.852825377720247,-48.621790883211105,215929.99664658713,213153.45611372264,233957.2423070906,15,1891,2170,1
-1110.981548209194,14.479610022061875,-46.253938459083386,215858.03609178227,213721.87554730242,232132.7479908412,0,1897,2200,1
-1123.6247917201229,14.491542964832522,-43.85080935508819,215792.38126954527,214330.48268465875,230147.94733043032,0,1743,2257,1
-1137.2132388857192,14.880880496061195,-41.39521844638812,215746.93462006393,214979.63601918254,228000.01962571393,0,1711,2270,1
-1151.7707100712357,15.64076402697249,-38.86778249023713,215738.10206734878,215667.99617485545,225686.39864202737,0,1696,2326,1
-1167.3105411257204,16.769836400418573,-36.25257555235298,215784.2178959296,216392.8678235014,223204.76055314948,3,1566,2405,1
-1183.8333205632837,18.27290928831972,-33.538395003253235,215904.9833462396,217150.8180185328,220552.93357012977,0,1543,2440,1
-1201.3274164636298,20.159944362975526,-30.71660525181151,216120.80556624252,217938.4968350331,217728.588499757,0,1491,2513,1
-1219.7695083338117,22.44582398647018,-27.778306259958704,216452.10071109762,218753.2865720781,214728.93756681206,0,1436,2547,1
-1239.1234261682057,25.152154335530003,-24.712743387200813,216918.64882548316,219593.42618953442,211550.79722530127,0,1284,2592,1
-1259.33813184396,28.31021401370254,-21.50726855142592,217538.90657604177,220457.68906643384,208191.0586296766,11,1282,2621,1
-1280.3457209955172,31.96235234318265,-18.148573878751716,218329.33072772887,221344.8912500053,204647.41185362163,3,1131,2683,1
-1302.059697487365,36.16006335222427,-14.625428004988327,219303.82318622986,222253.40656823688,200919.060525891,0,1027,2725,1
-1324.3735486021822,40.959369187625946,-10.93315855906742,220473.262171803,223180.77023984827,197007.20592769168,0,1019,2757,1
-1347.1589033182545,46.41571133490753,-7.078369979884535,221845.1434253123,224123.44776085403,192915.37505063787,0,913,2790,1
-1370.2629887784296,52.579757256028024,-3.0817284061322106,223423.3840965992,225076.79116071953,188649.78440499638,0,810,2810,1
-1393.5058812782415,59.494084243522856,1.0212416233235397,225208.21123512057,226035.11859494736,184219.7740461497,5,727,2862,1
-1416.6778123767826,67.19063628166411,5.180362504193744,227196.05756024458,226991.92458000113,179638.17741080836,0,631,2883,1
-1439.5365287960049,75.68851667079629,9.33148302864301,229379.46176948358,227940.25780940216,174921.52315185952,21,584,2893,1
-1461.804550512475,84.99127979120014,13.397374901821244,231746.94579158185,228873.13989384664,170090.21635421913,11,509,2917,1
-1483.1679321618012,95.08304883551921,17.290319182792956,234282.904680077,229783.99917258025,165168.75632381524,9,423,2936,1
-1503.2793852870204,105.92319141654498,20.91827314856158,236967.58753755447,230667.2579704752,160185.81222515213,11,327,2976,1
-1521.7648912262932,117.4409626965409,24.19301583667552,239777.02452315323,231518.92668820187,155174.22443353164,5,317,2969,1
-1538.2322182847768,129.5326287557257,27.037720731977906,242682.6954322893,232336.89576465468,150170.94425679176,17,306,2940,1
-1552.2824130588908,142.06176841791859,29.393183827670335,245650.98858093,233120.81353284407,145216.70422809586,0,278,2944,1
-1563.5208144285868,154.8611424599686,31.220661192864195,248642.68306409157,233871.5822158457,140355.62717592376,3,319,2920,1
-1571.563149557821,167.7342448302427,32.49965500129566,251612.88056154174,234590.5191818242,135635.02858424108,2,364,2885,1
-1576.0402229559375,180.45476423573047,33.2238561416085,254511.70284820348,235278.30410889589,131105.3963870428,6,479,2805,1
-1576.605443884245,192.7656047325535,33.39922428694003,257285.44170157728,235934.14552111598,126820.67841786546,12,524,2767,1
-1572.9460066886159,204.3866173203135,33.04241307158023,259878.11515160903,236555.71731585913,122838.69623429576,18,655,2650,1
-1564.7976632259715,215.0354476810066,32.17561676374858,262233.9256723177,237139.8938267867,119221.17644330811,2,764,2584,1
-1551.9592436892374,224.45145036334685,30.82060660740151,264300.28920566745,237683.74147889714,116033.34247849991,27,810,2518,1
-1534.302817401103,232.41547136977212,29.000534029972076,266031.2039183722,238185.4295006212,113342.97995368061,13,921,2422,1
-1511.779334767835,238.76805629772468,26.75225366035153,267391.2935822911,238645.1186731036,111218.7384741876,2,1024,2315,1
-1484.4201386507325,243.42370591127747,24.142225214212,268359.44056697446,239065.61969095492,109728.2271291598,13,1150,2207,1
-1452.3330970857348,246.37591036771835,21.27998710204977,268930.5795013355,239452.4008531379,108936.41196818414,6,1298,2073,1
-1415.6929628176915,247.6941847381305,18.32783395576177,269115.727745625,239812.92340937903,108904.07493221482,13,1405,1980,1
-1374.7313996286982,247.51594565894334,15.503353503524476,268940.87719245296,240155.62034133368,109686.45471010348,0,1543,1875,2
-1329.7324358335773,246.03047068105138,13.069660390583339,268444.95098665217,240488.49047557343,111332.28226448277,0,1625,1771,2
-1281.0319302944674,243.45282416838762,11.314579961119616,267676.98660880077,240817.1028915219,113882.87718446435,0,1732,1681,2
-1229.018526895007,239.99618620867733,10.527938391076454,266693.2249832793,241142.48373016174,117371.1051191633,0,1707,1683,2
-1174.1341511979986,235.85033289014203,10.980621644831695,265554.0914294397,241459.37025166917,121820.14795325114,4,1793,1611,2
-1116.8717704558546,231.16501972169766,12.902652554382943,264320.4241920888,241754.73784860843,127241.99124556755,0,1850,1570,2
-1057.7723440488485,226.03940741624498,16.464460758568723,263049.7633845088,242006.8280418068,133635.90302660834,0,1871,1544,2
-997.4207921482086,220.52150191955343,21.76639883056467,261793.63711641947,242185.29395014647,140987.5153620109,4,1906,1507,2
-936.437547092469,214.61701184722634,28.8345548150647,260595.48063084178,242252.58128383584,149268.80905552825,10,1918,1501,2
-875.468722515383,208.30367620789167,37.62061782279627,259489.2075161346,242166.0337777816,158438.67014051278,0,1975,1442,2
-815.17550468887,201.54988156569902,48.006232892376154,258498.884006978,241880.77269242538,168444.113476134,0,1981,1441,2
-756.2178361379218,194.33769190294802,59.81189516335417,257639.36971574347,241353.75697645365,179222.56797495732,0,2013,1415,2
-699.2361339909999,186.683628571434,72.80884143554735,256917.56076206238,240548.0851750548,190704.28469150595,0,2010,1419,2
-644.8330054844721,178.65012002352722,86.7377916947001,256334.17552996188,239436.5965884568,202814.31633042984,0,2010,1418,2
-593.5500059455047,170.34851351251297,101.33960786634837,255885.93459153012,238004.96156221005,215474.8376294462,0,2011,1418,2
-545.8474923559663,161.93704885011917,116.3878145778825,255567.26882177757,236253.7005782994,228607.29337952947,0,2014,1416,2
-502.0998687584334,153.61269959726812,131.70964657027372,255370.85338662443,234197.8339340734,242133.83009971902,0,2014,1417,2
-462.6036621275355,145.5932742360614,147.19601708784955,255287.3955294736,231864.09633684944,255978.82788214585,0,2011,1421,2
-427.59063651277006,138.0917183811861,162.80187563443204,255305.3393658926,229287.09117733367,270070.1605111599,15,2010,1451,2
-397.2428148221664,131.28391286703223,178.53031150722617,255410.57258979633,226504.87998918336,284339.553308669,3,2011,1416,2
-371.7067464549718,125.26960424958605,194.39886152431865,255586.19485562606,223553.69924689984,298722.75648568594,0,2010,1420,2
-351.104369726763,120.04117374217289,210.4036345804487,255812.8278096608,220463.50380643483,313159.58682680264,0,2009,1416,2
-335.5397270017492,115.48141879080927,226.50050417293093,256070.1455900769,217256.5044441411,327593.459295329,0,2010,1417,2
-325.09848014568286,111.392491139882,242.60604922195608,256339.61909951622,213948.52819476978,341970.59623250813,0,2013,1415,2
-319.8381691834591,107.53626700432258,258.60999252133274,256607.18637486757,210551.60987258432,356238.79560134595,4,2016,1416,2
-319.7740163137733,103.66878380616892,274.3948827811503,256864.6437494275,207076.40323722822,370346.27072125283,0,2014,1418,2
-324.8676543113779,99.56863014444963,289.858436516032,257109.71302480044,203533.79901235842,384241.65599922935,0,2009,1417,2
-335.024520450634,95.05928466464717,304.92787941280864,257345.2773178697,199935.61036220528,397874.8165361438,0,2009,1417,2
-350.10137028496143,90.01922372832038,319.56192987652537,257578.1918840659,196294.0882169498,411197.9129713805,0,2009,1415,2
-369.91895062634393,84.37885733198566,333.7457147591635,257817.86050484443,192620.3655117649,424166.95803575957,0,2010,1417,2
-394.2709584409664,78.10907215433213,347.48321853022935,258074.84768651065,188922.7948258769,436743.0066008827,0,2005,1420,2
-422.92517300862227,71.20546762912218,360.7876313430239,258359.6574871,185206.00843760892,448892.25870628655,0,2006,1422,2
-455.6213705117854,63.67072947170885,373.6682976007401,258681.48589496623,181470.68732607007,460585.8014054949,0,2006,1418,2
-492.07118499904084,55.50052521729924,386.1167938101664,259047.12297606916,177714.01298372573,471799.1558343197,0,2008,1419,2
-531.9621803953274,46.67703263268476,398.09735629165976,259460.3634867624,173930.93006994535,482511.3835648967,0,2006,1418,2
-574.9658735931488,37.168268551145395,409.5429735383502,259921.8475565607,170115.95772696062,492704.13742469146,2,2008,1418,2
-620.7443126366543,26.93083906581624,420.3556519167574,260429.11826768442,166264.90995454838,502360.7619465114,5,2005,1422,2
-668.9522674934792,15.915153746168867,430.4109761331609,260976.89578728852,162376.04084766124,511465.48334058985,0,2007,1420,2
-719.2386799995098,4.071626614607719,439.56701174212026,261557.58660886367,158450.65504408823,520003.0340213199,0,2008,1419,2
-771.2485980838038,-8.64426813995716,447.67341191726416,262161.8083952988,154493.46038115743,527958.5042429053,0,2006,1416,2
-824.6260842713651,-22.270003414877245,454.57636684966025,262778.7400991693,150512.66798663716,535317.2121944538,0,2008,1416,2
-879.020637460722,-36.83743493565833,460.11972197011244,263396.3712360641,146519.70466990813,542064.8622646882,0,2006,1416,2
-934.0934952247294,-52.37563581183364,464.14425237923746,264001.73787972814,142528.78126273502,548187.7498158531,14,2008,1421,2
-989.519058191228,-68.91292724907571,466.48692092029825,264581.2737677649,138556.54712742395,553672.6781449403,0,2008,1417,2
-1044.9832492730077,-86.47792493668199,466.9818542775011,265121.4189143179,134621.75602890286,558506.8051496011,0,2008,1416,2
-1100.1803502776447,-105.09924686007362,465.4634869263273,265609.2969032623,130745.14213698354,562677.4693843265,0,2006,1416,2
-1154.809079654622,-124.80312674675456,461.7727649214168,266033.1909393625,126949.70279176568,566172.0045014126,0,2008,1418,2
-1208.5702129769363,-145.60987777556622,455.7671003031488,266382.78025186254,123261.14719305348,568977.75124208,0,2006,1418,2
-1261.164967540882,-167.5307676325063,447.3312174512523,266649.11408630415,119708.2952286321,571082.1094426011,0,2005,1419,2
-1312.2941885755647,-190.56692077002552,436.3856274697951,266824.24481229257,116323.25981484134,572472.3703285985,0,2005,1420,2
-1361.6613062099927,-214.71130317706832,422.8918038836171,266900.57293563016,113141.2240331794,573135.4333577012,0,2006,1417,3
-1408.977547248314,-239.95133931544112,406.85423676685804,266870.19744484854,110199.94583867834,573057.5763666232,0,2008,1417,3
-1453.9672558016207,-266.26815962154643,388.3205246507759,266724.53566253494,107538.98366018948,572224.3328191596,0,2008,1418,3
-1496.374026655524,-293.63167810478296,367.380052121929,266454.1713342757,105198.43303288029,570620.5105009184,0,2008,1416,3
-1535.9642558169123,-321.99285673725177,344.1613635432768,266048.82812054857,103217.57885871961,568230.371625593,0,2004,1423,3
-1572.5253782055927,-351.27381988934894,318.82816048392993,265497.5212629139,101633.83431626123,565037.97805619,0,2008,1417,3
-1605.8622297248592,-381.3568076527547,291.5736949415244,264788.9273216904,100481.75467056362,561027.7049752405,0,2009,1422,3
-1635.7947524412962,-412.074757102893,262.6159068472127,263911.87424113514,99792.23331362205,556184.9263629043,0,2009,1418,3
-1662.1595080396032,-443.2068310296428,232.19468404236918,262855.91310954856,99592.1380041147,550496.8753153824,0,2009,1427,3
-1684.8166444443161,-474.4798273543582,200.56975250083258,261612.03028020918,99904.20993188878,543953.6817624228,0,2013,1418,3
-1703.6582801062154,-505.5726782600814,168.0196141975027,260173.41954873098,100747.00644132224,536549.5686671251,0,2010,1427,3
-1718.6143321841598,-536.1219952534161,134.84122274396256,258536.29564505644,102134.75369501872,528284.0703890382,0,1999,1432,3
-1729.6567883851005,-565.7284472012827,101.34812825315619,256700.89531586462,104076.94626317552,519163.1049269426,0,1997,1436,3
-1736.8024504037598,-593.9612371462833,67.86807224073375,254672.59522574244,106577.6683978491,509199.9264663023,0,2002,1430,3
-1740.113605785652,-620.3598526151839,34.74063502792713,252463.04847088025,109634.70494000088,498415.85272129567,0,2006,1427,3
-1739.6989673345383,-644.4360196340406,2.312870976310882,250091.41471320597,113238.52258208979,486840.5788329718,0,2009,1424,3
-1735.715241468534,-665.6751690260378,-29.065895688984682,247585.49317425425,117371.29931874458,474512.4352988455,0,2010,1421,3
-1728.3667986303014,-683.5361672967334,-59.04882273562459,244982.28028318807,122006.14319250733,461478.67823461967,0,2002,1433,3
-1717.9046572469747,-697.4531842097622,-87.29695460410831,242327.70216708552,127106.45960222653,447795.40934772784,0,2004,1427,3
-1704.628124580638,-706.843601392,-113.48335890562508,239675.60066377913,132625.44790072527,433527.5314416826,0,2005,1425,3
-1688.885211734559,-711.1256567520791,-137.2949021960781,237085.4449565281,138506.16541785092,418748.95687207615,0,2007,1427,3
-1671.0634718699234,-709.7467106991168,-158.43418475539082,234618.17785573614,144682.56580900165,403542.47777930315,0,2002,1427,3
-1651.570746287339,-702.2121348855611,-176.62360224578927,232331.37537593246,151081.0428464458,387999.6040993055,0,2005,1428,3
-1630.8105167175806,-688.1108020533724,-191.61440886684287,230274.86449212517,157622.49046228878,372220.6846469041,0,2006,1425,3
-1609.1568663078162,-667.1480436575767,-203.19976950833652,228486.68761006117,164225.57233839974,356314.8341838606,0,2000,1429,3
-1586.9365294310498,-639.1856912417632,-211.22440939932437,226990.07868899818,170810.37798087017,340400.0137537905,0,1982,1436,3
-1564.4183269600298,-604.2789788848288,-215.5921629375421,225791.67737771268,177301.28423250793,324603.1868448965,0,1985,1438,3
-1541.8051254682764,-562.7097031552072,-216.2806378946503,224879.74947828348,183628.83407275353,309059.4263902288,0,1988,1439,3
-1519.23226646583,-515.0146077490713,-213.36200997159202,224222.3227837994,189730.13364937255,293910.23701602576,0,1990,1434,3
-1496.7780049228022,-462.0032799368432,-207.02372514050637,223766.64283606628,195547.95863524382,279301.08476348076,0,2000,1430,3
-1474.481241389008,-404.76402286928453,-197.58827546576677,223440.74561991417,201030.05741511972,265376.99332670047,47,2011,1419,3
-1452.3552836472331,-344.6564988737258,-185.52926172218784,223156.80345284188,206129.46481643335,252277.32874679947,557,2013,1419,3
-1430.3909745647632,-283.2745788092177,-171.4739259984707,222816.73407038153,210805.9480422043,240130.66365767882,1235,2009,1420,3
-1408.5526369023585,-222.3637147324349,-156.18209235768583,222320.7571010972,215028.54314283983,229048.69060618128,2088,2012,1416,3
-1386.7768512385194,-163.70718927808392,-140.50497127465792,221576.62943744016,218778.57581178666,219120.49977745133,2587,2013,1416,3
-1364.980982671284,-108.96853689720336,-125.32609262560196,220508.25093405857,222053.9553198225,210408.30663735827,2730,2012,1415,3
-1343.0761407904467,-59.46035977479601,-111.47475312370014,219065.70377786426,224876.13784428613,202943.02422080105,2858,2016,1415,3
-1320.972152354117,-15.925622414352201,-99.61139659840487,217235.95696407565,227297.1496141411,196720.51298832535,2887,2012,1418,3
-1298.580964346031,21.520018700857193,-90.09492278363872,215050.01796984658,229400.93964968232,191702.10626261207,2910,2012,1417,3
-1275.8539595402824,53.24639412380477,-82.9013849743029,212580.69261529786,231293.85262134537,187821.11995717694,2775,2016,1418,3
-1252.8611381556136,79.86586603628032,-77.68472128653877,209927.48212247563,233084.53311147436,184992.4333367036,2677,2013,1417,3
-1229.8545750132698,102.02953853922737,-73.92610249072379,207196.36284225015,234862.8665820802,183120.23795193023,2655,2020,1418,3
-1207.2530088999079,120.32081296302125,-71.05561819423733,204484.95653609178,236686.98057490497,182103.55877629216,2671,2022,1420,3
-1185.5445397931567,135.21906407040032,-68.52700115655193,201874.1548940284,238578.3397035907,181842.04348477809,2607,2020,1421,0
-1165.1679191961482,147.10674212460273,-65.86073864874369,199424.40538433034,240522.34513342712,182241.094730378,2589,2038,1418,0
-1146.4325715783966,156.3052988456846,-62.66343454410726,197176.30380913394,242473.9693446223,183214.0427291502,2572,2026,1419,0
-1129.4854545869814,163.11985073783038,-58.64395192260447,195153.67309752453,244367.93046444812,184681.65918495785,2732,2029,1417,0
-1114.3136640959772,167.86931920344435,-53.63218868684832,193366.86814210942,246130.127023244,186570.7058382745,2658,2063,1417,0
-1100.7808914909072,170.8861415871898,-47.5879222380733,191815.59313687566,247686.12118304364,188812.89595394832,2717,2085,1422,0
-1088.6887357267008,172.48861751605813,-40.59310517129203,190491.8184501496,248966.68443878245,191345.0583373535,2775,2077,1416,0
-1077.8380725826144,172.9448055980524,-32.833043320271855,189382.8204257419,249913.00769198517,194110.32154646944,2791,2068,1417,0
-1068.066567011403,172.45043713164821,-24.575490484609908,188473.60506391307,250481.66063954838,197059.15226242706,2784,2077,1420,0
-1059.2557538502929,171.13312155306735,-16.145868638575948,187748.68054991032,250648.39074166122,200149.21715923515,2754,2067,1416,0
-1051.3163959311244,169.07771404034645,-7.890740691885941,187193.60849522898,250411.00862541184,203344.12794879454,2744,2074,1418,0
-1044.169858039839,166.3549564554236,-0.13643144855446454,186796.19379878728,249790.74447876203,206611.89370668115,2753,2094,1418,0
-1037.740297504831,163.04078624147337,6.8471120143386095,186547.0024134981,248830.23674723695,209923.80606939414,2730,2107,1421,0
-1031.9579300669445,159.22778205420744,12.876282521921041,186439.32154702034,247587.66508836823,213253.89172274005,2732,2110,1423,0
-1026.7649528757404,155.03091077901092,17.869191318348573,186468.81767792083,246129.23221430596,216578.6336790559,2685,2098,1418,0
-1022.1172042612161,150.58483784959685,21.834800034171572,186632.95115973722,244521.59403019617,219876.7027097891,2655,2120,1428,0
-1017.9793903411378,146.03374042208912,24.842317689124695,186930.12722503077,242824.2226101207,223128.63537576993,2615,2116,1425,0
-1014.3174093161489,141.52050353981068,26.990730963928524,187358.75329440692,241083.74479934736,226316.4641419061,2533,2112,1422,0
-1011.092935976853,137.17992837248485,28.386729582313578,187916.27037159516,239332.659220178,229423.46681649104,2481,2117,1427,0
-1008.2613988475374,133.1345169763733,29.126362542955846,188598.07975631018,237591.6456443708,232434.22839444838,2385,2138,1426,0
-1005.7722740143873,129.49121205412618,29.281850150493852,189396.62696596884,235873.1159284837,235334.84694559875,2293,2128,1426,0
-1003.5717051538517,126.33889178783102,28.899088448260873,190300.9704542786,234184.81476355137,238113.09976586804,2191,2130,1425,0
-1001.6071390055014,123.74590096274646,28.004425175391304,191296.91842730122,232533.340590386,240758.6610545844,2066,2145,1418,0
-999.8321666448363,121.7576531581257,26.614725919169995,192367.69248329304,230926.80224572285,243263.29976073065,1974,2170,1422,0
-998.2105236911337,120.39469124408257,24.74718947193804,193494.83804922388,229375.75624922875,245620.82786571587,1881,2173,1430,0
-996.7190715392733,119.6520132950472,22.427702864339224,194659.24956312194,227892.50443664045,247826.78570337614,1779,2189,1429,0
-995.348227515026,119.50129285242406,19.69501385749836,195842.44446445338,226489.26973239175,249877.99992504006,1712,2194,1432,0
-994.0990590084186,119.8956998476524,16.59959036217984,197027.7589454365,225176.25535728855,251772.12529041033,1655,2177,1423,0
-992.9783157503144,120.77608271025662,13.198684768986807,198201.0098258024,223960.41726081853,253507.3014864905,1591,2186,1463,0
-991.9931542827221,122.07806585869668,9.548985195852909,199350.67677426478,222844.9109756914,255082.02990846508,1537,2209,1434,0
-991.1476153989578,123.73783879116489,5.699907887104736,200467.7620107403,221829.10412386677,256495.2103835618,1434,2224,1600,0
-990.4415227671311,125.69399924372037,1.6908661856045963,201545.38712271486,220909.29628502144,257746.27382858738,1325,2231,1600,0
-989.8705034132792,127.88571824671718,-2.4472800162827935,202578.26753903972,220080.03266709755,258835.42300413043,1266,2237,1600,0
-989.4265678296617,130.24975725620274,-6.6883433041209335,203562.25220846332,219335.46289300956,259763.85954265014,1199,2259,1606,0
-989.0999601140417,132.7191486721384,-11.006297182261324,204494.06040532168,218670.2605132897,260533.882747361,1129,2286,1608,0
-988.8819985181088,135.22437006066576,-15.371559083154022,205371.23190827537,218080.05505344112,261148.9149160859,1002,2314,1607,0
-988.7672079929475,137.69556707430445,-19.749171683385008,206192.21546079422,217561.45019670596,261613.4764574635,959,2339,1610,0
-988.7537289217003,140.06483566989712,-24.09954503949162,206956.54161118143,217111.62239630634,261933.08223675698,968,2371,1608,0
-988.842244141282,142.26877915328558,-28.381619690659623,207665.03387200847,216727.62824261168,262114.08798102802,823,2357,1610,0
-989.0340539733637,144.25091253815702,-32.5569327080253,208319.9158887026,216405.80134538712,262163.5493831174,763,2411,1616,1
-989.3287812702939,145.96323139712018,-36.593149212663874,208924.7114268923,216141.53053482124,262089.14076610145,709,2409,1613,1
-989.7220946773109,147.3670508476433,-40.46704044796411,209484.00176221377,215929.36795285484,261899.1314441594,603,2436,1612,1
-990.2043072281461,148.43295082948603,-44.16635274344636,210003.1598553732,215763.30117737775,261602.39171186596,594,2474,1620,1
-990.760721531736,149.13913982182538,-47.689460992670014,210488.1189294317,215637.126686031,261208.40460081355,503,2512,1618,1
-991.3736164889439,149.46845767516174,-51.04317076638256,210945.17572889559,215544.90496959977,260727.26660214894,444,2556,1652,1
-992.0247539345429,149.40554870830437,-54.23998160787975,211380.84314178294,215481.35391098246,260169.67761294165,369,2595,1621,1
-992.697525164579,148.9352934268476,-57.29527890432183,211801.79485602473,215442.00710175748,259546.88854611895,296,2580,1620,1
-993.3787142510445,148.04227473475527,-60.224251146637755,212214.9080107539,215423.13901405418,258870.5604204543,260,2603,1621,1
-994.0598413504133,146.7110141871389,-63.03917220701404,212627.332968069,215421.58744842702,258152.57964597407,239,2639,1623,1
-994.73812885515,144.92740995748008,-65.74819698658106,213046.49528080045,215434.5707450386,257404.8416859819,263,2706,1629,1
-995.4172661370525,142.68158049148286,-68.35596245565583,213479.98521710263,215459.51613169012,256638.93952635853,115,2715,1628,1
-996.1079064585751,139.97055023983768,-70.86465353715795,213935.42182069967,215493.93305039272,255865.81810790772,192,2728,1624,1
-996.8278282717426,136.7986774798188,-73.27226620448809,214420.4680815834,215535.30510510277,255095.41883612867,97,2781,1637,1
-997.6012900470847,133.1765611232891,-75.56571133256655,214942.96650615905,215580.8058269817,254336.22720029549,105,2807,1638,1
-998.456517290361,129.12212061222218,-77.71506592701003,215510.650344976,215626.900421975,253594.89999515773,49,2824,1647,1
-999.4211427841246,124.66613575822286,-79.68102379503311,216129.72826739607,215669.44040979102,252876.32098315743,38,2815,1646,1
-1000.518379072175,119.85852040209437,-81.43323525239468,216802.75942774516,215704.6634160392,252184.1272349702,31,2811,1644,1
-1001.7673850099958,114.76836118968126,-82.9619780757218,217527.41624733494,215730.59983081682,251521.29596766017,46,2825,1638,1
-1003.1877678203083,109.47491280544617,-84.27300392780566,218297.13083924766,215748.03330237986,250890.2459846556,47,2849,1637,1
-1004.8055252039035,104.05430173811565,-85.37058315872478,219103.0481475706,215760.63263965124,250292.37800591238,38,2869,1639,1
-1006.6572766346462,98.57070514911236,-86.24217611131391,219935.7808646516,215774.34744839702,249727.52737289545,21,2886,1641,1
-1008.7906224482466,93.07556391347983,-86.85578963589563,220786.07500384972,215796.26420367503,249193.63271360562,7,2894,1641,1
-1011.2609575270775,87.61093383003599,-87.16785302739828,221644.82999812518,215833.21389339652,248686.46822305833,3,2884,1649,1
-1014.126965419264,82.21270643567631,-87.13167256904443,222503.1228521935,215890.70451760406,248199.33650479972,0,2911,1667,1
-1017.4468163912766,76.9127261790687,-86.7023096339476,223352.31906105994,215972.60862349693,247722.81664996824,2,2908,1698,1
