AccX (g),AccY (g),AccZ (g),GyroX (deg/s),GyroY (deg/s),GyroZ (deg/s),Heel ADC0,MidFoot ADC1,Toe ADC2,LABEL
-1016.2922034050127,-101.68886673184548,45.528601904438126,299445.51068801293,118037.38195319529,200999.11198625615,160,2040,1532,4
-1014.1116422246374,-101.59845575386136,45.37450811817416,299763.9486220153,117450.21491303567,201362.59267874225,135,2043,1522,4
-1011.9608412234453,-101.57076934382256,45.248273418476046,300073.7268093141,116868.09970709431,201733.74132773443,147,2011,1533,4
-1009.8544275547506,-101.62352793289413,45.16242523153889,300370.6155154653,116296.638729696,202110.59513085918,99,2059,1530,4
-1007.8083305818632,-101.77382574578536,45.13093286533865,300650.8407458177,115741.26234958803,202491.04287988137,71,2009,1541,4
-1005.8394816684963,-102.03605601228173,45.16745726756521,300911.16487735143,115206.97726641051,202872.77750549658,82,2022,1541,4
-1003.9648851225453,-102.42020380942465,45.28290641715938,301148.95626365946,114698.04445001415,203253.27106022995,60,2021,1550,4
-1002.200779684724,-102.93103912947008,45.483726135045295,301362.2370528985,114217.73746438423,203629.7789685228,27,2018,1555,4
-1000.5621145950748,-103.56840893200051,45.77202192600558,301549.64818193397,113768.31103053968,203999.35440558096,9,2014,1565,4
-999.0619351936837,-104.32865390195323,46.147323034612675,301710.3443707974,113351.1477371708,204358.87479700326,0,2037,1562,4
-997.7107686309784,-105.20657413716567,46.60890369731151,301843.8959956387,112966.98281160815,204705.07450773852,0,2025,1567,4
-996.5164085805891,-106.1968867355172,47.15795191161304,301950.2547139166,112616.11593138518,205034.5782944611,0,2024,1582,4
-995.4839896238702,-107.29468090621835,47.79938483484553,302029.77872050955,112298.5513398149,205343.93715439175,0,2018,1590,4
-994.6160684936962,-108.49505911144816,48.54281503041744,302083.26682389056,112014.0395053304,205629.6440893614,0,1993,1611,4
-993.9132465643115,-109.79251421133681,49.402184459092666,302111.94788650115,111762.00764136766,205888.13637248526,0,1969,1642,4
-993.3764976751958,-111.18071309716801,50.39409097024936,302117.4132768307,111541.41615040613,206115.82233887044,0,1983,1627,4
-993.0104913795491,-112.65264785344569,51.53591563875755,302101.53630912997,111350.64494938277,206309.10981849895,0,1983,1629,4
-992.8252068016286,-114.19999108689944,52.84567537588519,302066.41345362086,111187.47248395944,206464.37674773572,0,1936,1679,4
-992.835099623845,-115.81071987578152,54.34385146729136,302014.2901604872,111049.10795344738,206577.8868204763,0,1961,1667,4
-993.0577211636381,-117.46616169253305,56.05535591168363,301947.42005141353,110932.22589156538,206645.71071169566,0,1911,1700,4
-993.5131922668058,-119.13952684838796,58.010439485452906,301867.809233214,110832.99897136676,206663.70124751417,0,1933,1679,4
-994.224394440351,-120.79634662556539,60.244857397109115,301776.8391869533,110747.14379988168,206627.52570888647,11,1872,1723,4
-995.2173517866081,-122.39624713098141,62.79984830418105,301674.9062821669,110669.97962042209,206532.71139975023,0,1867,1753,4
-996.521531048923,-123.89535653336512,65.72218678377887,301561.2013181289,110596.48632183419,206374.65291088872,0,1886,1739,4
-998.1699069012273,-125.24789484928777,69.06423348104438,301433.58616447874,110521.35570933211,206148.56893052405,3,1913,1701,4
-1000.1988129375617,-126.40593806403561,72.88361145176482,301288.4815265534,110439.03686574682,205849.39979317356,0,1875,1769,4
-1002.6477185755983,-127.31788852649204,77.24226993275953,301120.73281019815,110343.77298687077,205471.6500817976,0,1903,1735,4
-1005.5592320252675,-127.92706772224265,82.20489652279392,300923.4916020777,110229.63181306575,205009.25653007263,0,1865,1750,4
-1008.9809541285564,-128.17403044624035,87.83096164972754,300688.1946885251,110090.43085644968,204455.54940650662,0,1889,1763,4
-1012.9710479788866,-128.00725768933697,94.1494849906255,300404.6892056807,109919.33333915242,203803.296045584,0,1887,1781,4
-1017.6027877815401,-127.39651002683267,101.12672838170444,300061.6995107137,109708.05528421512,203044.85302448913,0,1859,1819,4
-1022.9590776885051,-126.3354503443196,108.6588350811056,299648.1312640581,109446.24028241832,202172.4191471661,0,1833,1825,4
-1029.1199778227767,-124.8358179521779,116.59451060481659,299155.14799436776,109122.12411290349,201178.14344699864,0,1832,1821,4
-1036.154894867674,-122.92374548961119,124.7618202053175,298577.8066455257,108724.61883938695,200053.94789435415,0,1802,1853,4
-1044.121268367607,-120.63504368849138,132.98740518290722,297915.25413389906,108245.37899952366,198791.32655954617,0,1758,1885,4
-1053.065547763494,-118.0075746709008,141.11199497853286,297169.9282726986,107679.8080662882,197381.36054212577,0,1755,1914,4
-1063.0252428903223,-115.07865903178629,148.9996667550803,296346.85439003597,107027.02494751806,195814.93853192448,0,1755,1909,4
-1074.031033714179,-111.8880979192582,156.53834198821667,295453.46895030903,106288.9600187579,194083.07663826397,0,1802,1927,4
-1086.107230850688,-108.48052311248733,163.63551179323045,294499.6903291486,105468.98908930196,192177.2107921211,0,1832,1929,4
-1099.2701250729353,-104.90464320394913,170.2135128024681,293497.9619987047,104570.92027229616,190089.4292086916,0,1791,1975,4
-1113.52590758856,-101.21048755945043,176.2063686345352,292463.15141154407,103598.77167480138,187812.6924243875,9,1742,2012,4
-1128.8697776925642,-97.44623101633485,181.55805328029552,291412.2398111649,102557.03526251591,185341.05450754933,0,1670,2068,4
-1145.2854734844752,-93.65618204225747,186.22106618354584,290363.94157676253,101451.00175068858,182669.90094361146,0,1662,2098,4
-1162.7443967107004,-89.88029909774502,190.1551437462851,289338.4196325198,100286.98130123524,179796.14867101487,0,1618,2152,4
-1181.2048172548448,-86.15373976409288,193.32702791311348,288357.0854329957,99072.42355474501,176718.2956429239,0,1551,2175,4
-1200.6114178471487,-82.50509538761182,195.71175565493658,287442.46280085394,97815.99630451339,173436.37776072283,0,1483,2236,4
-1220.895295079377,-78.95299598880747,197.29480696856143,286617.9721511292,96527.55559691593,169951.84262244758,3,1381,2289,4
-1241.9744821234392,-75.50193646836964,198.07397858165834,285907.40729356115,95217.86788950655,166267.24284603822,3,1387,2326,4
-1263.7547802712338,-72.13938222336766,198.05905848949706,285334.2040598071,93898.17030120238,162385.97266109224,0,1344,2357,4
-1286.1305954666216,-68.83554580861623,197.26789615509026,284920.7102834656,92579.74592577324,158312.305653821,0,1366,2406,4
-1308.9846753769955,-65.54569009081207,195.72044640818456,284687.4988328241,91273.57134067759,154051.6607895244,3,1245,2469,4
-1332.1866090020587,-62.214254497919235,193.43358182060933,284652.759573584,89990.07633001899,149610.9575841375,0,1138,2509,4
-1355.591613482578,-58.77956847792461,190.41824955041818,284831.80364565813,88739.03036429633,144998.99878204585,0,1122,2513,4
-1379.0399708573893,-55.17817289682322,186.6793308045767,285236.69303883606,87529.5515132467,140226.90943317133,3,977,2589,4
-1402.3569718052252,-51.35003392406751,182.21691540166893,285875.94535814656,86370.19400991472,135308.5411563184,0,902,2634,4
-1425.353280102234,-47.24529164688226,177.02723650546776,286754.2343966924,85269.00871112088,130260.62737412902,0,816,2659,4
-1447.8240148188438,-42.82974419948744,171.10327879740345,287872.17164784594,84233.56169672868,125102.81376971332,0,735,2711,4
-1469.5456270181892,-38.08727020314877,164.43642634265845,289226.3439570405,83270.9425354984,119857.71035627177,0,652,2738,4
-1490.2720074634963,-33.02058887136812,157.01974052089997,290809.6034296778,82387.76039519148,114550.83396674179,3,574,2758,4
-1509.7318148055,-27.651900700961527,148.85229385865824,292611.3518785491,81590.18554390113,109210.5609229741,2,525,2774,4
-1527.6299823141876,-22.022899377422753,139.9452569293287,294617.6066982438,80884.10789082681,103868.15516277931,2,492,2795,4
-1543.6548132399248,-16.192249129680373,130.33078208339415,296810.842236524,80275.39971470437,98557.61976391208,2,487,2793,4
-1557.4864968339416,-10.230599198007225,120.07161900780908,299169.60572542297,79770.19345552966,93315.5043460585,0,473,2787,4
-1568.8030277293162,-4.2148369682179565,109.26816090166645,301667.8438805587,79375.03322319804,88180.84077350624,0,489,2766,4
-1577.2840383349826,1.7777118266418435,98.0610863886251,304273.9525470559,79096.7946599269,83195.00701338689,0,486,2764,4
-1582.6132286248505,7.6734514875204365,86.62890600999329,306949.8106395566,78942.44177931821,78401.60898658268,0,535,2741,4
-1584.4808405843469,13.401334350383468,75.1794195366013,309650.2906624334,78918.84191397486,73846.4870404294,15,590,2689,4
-1582.5889758262574,18.884001505753485,63.93548856137655,312323.5225120503,79032.8306002268,69577.63221928258,14,687,2600,4
-1576.6616963894953,24.024515537804845,53.1203694021228,314911.681247652,79291.49188198814,65645.08920629947,15,789,2538,4
-1566.4627024743045,28.694687434027017,42.94368468893008,317352.355561515,79702.43278568253,62100.80989652907,12,899,2419,4
-1551.81725731826,32.73231580289731,33.581788959472966,319580.8809821784,80273.92439063317,58998.00811266712,12,1081,2263,4
-1532.6269344931143,35.959762869262754,25.157505732680686,321533.4421797996,81014.94813303219,56390.048234877366,11,1188,2170,4
-1508.8733812925832,38.224716631523854,17.733966738984993,323151.28731571155,81935.21534191801,54329.02254927208,5,1350,2057,4
-1480.617210149803,39.441686115827565,11.323089928455929,324386.34763766715,83045.13184199225,52863.9270646974,13,1403,2001,4
-1447.995141394415,39.61662672538431,5.8980656318336475,325206.29579558346,84355.62336177718,52038.96016977268,0,1501,1901,4
-1411.2106187640577,38.85406876520385,1.4086153452095453,325597.44333503227,85877.81276288952,51892.4522840918,2,1597,1797,4
-1370.515901444873,37.34983958850881,-2.197545583349085,325566.1565914862,87622.55401391415,52456.239098820995,0,1713,1704,4
-1326.1960063652543,35.37218249178554,-4.952642207562745,325139.19415555656,89599.70528415554,53755.40536148462,0,1761,1682,4
-1278.5628557053606,33.231620668862114,-6.853083617780809,324362.08174542204,91816.74182706594,55808.49829404204,0,1769,1662,4
-1227.9556734707937,31.240823957829022,-7.851617227743625,323295.0927950869,94276.49749906945,58627.966055930156,0,1816,1627,4
-1174.7435078979374,29.677964196622238,-7.8597648893993135,322008.0779073762,96974.78066413195,62220.3634670035,0,1838,1598,4
-1119.3288294807396,28.764473792218464,-6.7649283703559355,320574.8406541531,99898.93876437115,66586.19885691284,0,1874,1573,4
-1062.1501304641706,28.65271907799301,-4.46053466579631,319066.66911185253,103027.70950176044,71719.66779776251,0,1902,1539,4
-1003.6825959124287,29.420155341239457,-0.8761090124371219,317546.5428129769,106332.13341005753,77608.43596169277,0,1929,1516,4
-944.4333519606619,31.073813851179388,4.004512459869832,316065.7355359167,109777.77616490057,84233.75255446843,7,1944,1506,4
-884.9284991114866,33.56561253666304,10.137419726101976,314662.31910204113,113328.48094250857,91571.13170266672,0,1969,1492,4
-825.6991997873066,36.81250300774826,17.422742291101095,313360.9906161042,116950.26967657747,99591.06668153044,0,2014,1453,4
-767.2706983786844,40.71989573876969,25.718500745372832,312174.41132613196,120614.0386954043,108259.42280770064,0,2012,1454,4
-710.1487526881915,45.21097584509326,34.86247600051176,311105.83518196456,124297.22841242398,117537.89574444559,0,2011,1454,4
-654.806056580437,50.253224776150105,44.693944583104354,310152.05795830395,127984.4065766097,127384.51596148216,0,2013,1451,4
-601.6742499849605,55.86767639006127,55.06896678700825,309306.1171664833,131666.20404815927,137754.39513763224,0,2010,1452,4
-551.1388990296683,62.117245241149085,65.87034485130783,308559.896143146,135336.86446708965,148601.27564569705,0,2011,1451,4
-503.53736777335655,69.08158059699352,77.01043347026662,307906.15788797906,138991.54332594687,159879.13587357485,0,2009,1451,4
-459.1623908523328,76.8269765519879,88.42261041233222,307339.35534082627,142624.416696656,171543.14466544232,0,2010,1453,4
-418.2697750089254,85.37712113588334,100.04514862747182,306855.557405537,146227.88407521244,183550.4330894357,0,2010,1452,4
-381.0876089837895,94.6917954374743,111.80678329653597,306452.29502571834,149792.71553351558,195860.43207829123,0,2009,1452,4
-347.82432884011627,104.65891506593694,123.62076260575965,306128.84122895554,153309.0002336427,208434.3713923351,0,2009,1452,4
-318.6736076671696,115.0999100296056,135.38903140900956,305886.9237775288,156767.5062376145,221234.5036757918,0,2009,1455,4
-293.8160914297669,125.78827904091774,147.0154815338062,305731.67375065916,160160.8589893077,234223.28125257615,0,2007,1453,4
-273.4178054195605,136.47871719538716,158.42512889298757,305672.6610535976,163484.17978416668,247362.38016288166,0,2008,1454,4
-257.62642442394866,146.93528233536216,169.58061446003677,305724.5981179041,166734.94725511942,260611.79488361673,0,2010,1454,4
-246.56683067446312,156.95012186318712,180.48862679238968,305907.13449219434,169912.01566294418,273929.47359534865,0,2010,1452,4
-240.3347235542878,166.35454889623193,191.19819458757092,306243.6520421172,173014.19498880068,287271.76853089203,0,2010,1454,4
-238.98944647680443,175.02328756736364,201.79543989453688,306759.56742172985,176039.00824276177,300594.0190269114,0,2008,1454,4
-242.549505311599,182.87124039209854,212.39533092297947,307480.32773314725,178982.0544245047,313850.97224338475,0,2009,1452,4
-250.99107403645107,189.8456430075879,223.13045704882325,308428.9397884095,181837.01521962538,326997.6547761126,0,2010,1453,4
-264.2480111993537,195.91761479135818,234.14012266298326,309623.5984648007,184595.9706313797,339990.2354806916,0,2009,1452,4
-282.2132584184657,201.07489808862297,245.56196832390125,311075.99347738875,187249.78329210143,352786.43200352526,0,2009,1454,4
-304.74188929785936,205.31521735451787,257.5245641108856,312790.0724912265,189788.55687144134,365346.08231552236,0,2007,1454,4
-331.6544658512193,208.64055607046836,270.14065196673636,314761.1638073337,192202.00816752564,377631.6137544629,0,2007,1456,4
-362.7403314955094,211.05272738175475,283.5021615288187,316975.6776247214,194479.6837266973,389607.97999956156,0,2008,1453,4
-397.7621371111635,212.5492210647282,297.67613242817555,319411.2887548333,196611.21127739362,401242.5531540041,0,2008,1453,4
-436.45981073490765,213.11951430344618,312.6998905415795,322037.22580748744,198586.52071793427,412504.8772854218,0,2009,1453,4
-478.55258884987325,212.74274416315114,328.5749556328457,324814.60459551157,200395.96258307528,423366.1491892599,0,2007,1452,4
-523.7414272300161,211.38634264236103,345.261038553772,327697.03793109464,202030.53582021032,433798.9752905058,0,2008,1452,4
-571.7117575079828,209.0050766484938,362.67318064527586,330631.3932718049,203482.27473745155,443777.29722052766,0,2008,1452,4
-622.1365193520837,205.5402054534335,380.6848020757455,333558.59277904156,204744.7820296762,453276.25180177885,0,2008,1453,4
-674.6815166401913,200.91829684973032,399.13556583537064,336414.64861703146,205813.95357617683,462272.28357884893,0,2009,1454,4
-729.0107306090163,195.04991552711405,417.8385680558068,339131.74691192666,206688.60366778722,470743.2439141493,0,2008,1452,4
-784.7900545080146,187.82858777292685,436.58470608563744,341639.43898275256,207370.6664969078,478668.17453643825,0,2007,1454,4
-841.6919578361429,179.12984756611098,455.14736976101085,343866.43148902996,207865.04209718143,486027.11183470336,0,2008,1454,4
-899.3985005252374,168.81073504532716,473.28794194203675,345742.6445704581,208179.2616026303,492800.8674633134,0,2008,1453,4
-957.5994602201409,156.71085844328607,490.76080413968145,347201.2046091169,208322.96750584274,498970.666300474,0,2008,1454,4
-1015.9882514978964,142.6555854905932,507.31809861914354,348180.72705368773,208307.1614256103,504517.9427071389,0,2009,1454,4
-1074.2573907222898,126.4609029697741,522.7134690629975,348627.59863503167,208143.3854108241,509424.21948825335,0,2008,1455,4
-1132.0945499683962,107.93924499889357,536.7056758892413,348497.9635925149,207842.94956295137,513670.86273490795,0,2008,1453,4
-1189.1817429679254,86.90577995316866,549.064360911602,347759.8058658272,207416.12205836904,517238.8550105221,0,2008,1454,4
-1245.1964248738848,63.18463325744705,559.5758570291958,346394.8681399692,206871.39377714327,520108.56463065365,0,2005,1456,4
-1299.8132618753589,36.6155936942164,568.0470032339533,344399.8443876902,206214.92502008972,522259.4047422869,0,2008,1454,4
-1352.7076971645934,7.0623308472122215,574.3092861493393,341786.9748108143,205450.0741573783,523669.50780080375,0,2008,1455,4
-1403.5584373362153,-25.578338215666534,578.2238042025405,338584.2694424396,204577.0716408586,524315.5049793704,0,2004,1457,3
-1452.0477236073384,-61.36698837811194,579.684425904599,334835.1679980879,203592.98489926668,524172.4719406889,0,2009,1453,3
-1497.8635531889836,-100.31254014843582,578.6181408242475,330597.5231812261,202491.95578354533,523214.15911925206,0,2009,1454,3
-1540.7039186342433,-142.36389669873162,574.9847411574522,325942.3686799612,201265.675086004,521413.4827374005,0,2008,1456,3
-1580.2816723148812,-187.40081741777095,568.7799862666539,320952.46731943416,199904.2291174149,518743.2411062641,0,2010,1451,3
-1616.3310574737322,-235.22294213454924,560.0433026790554,315720.0320389342,198397.39052915096,515177.097800963,0,2007,1451,3
-1648.613048210537,-285.53885378945415,548.8660034128856,310344.02673745865,196735.97745319238,510690.69947434566,0,1995,1462,3
-1676.9172521241123,-337.9585303246783,535.3967106227982,304927.2728621284,194912.8057984835,505262.762351779,0,1997,1462,3
-1701.0628764969802,-391.9901192031198,519.8432518932948,299572.70081409044,192923.12108882648,498876.1484380515,0,1997,1463,3
-1720.9005567317386,-447.03949856992705,502.47074378222993,294379.5278457163,190764.6158234016,491518.9939679287,0,1993,1465,3
-1736.3187269368464,-502.4157426186352,483.59474731277106,289440.2357172985,188437.110688589,483185.86433206167,0,1992,1468,3
-1747.2579777556846,-557.3458441955186,463.569626782741,284837.7585958769,185942.00157230513,473878.87813447905,0,1991,1465,3
-1753.7269710800358,-610.991156702849,442.7750978687312,280643.0870779209,183281.76999967583,463608.8077709786,0,1993,1467,3
-1755.8097080960692,-662.4596144704133,421.598494220041,276913.7028389649,180459.67531552716,452396.0226853542,0,1992,1465,3
-1753.660961832038,-710.816881921936,400.4090719014019,273692.2223430409,177479.4664624802,440271.19676096604,0,1996,1463,3
-1747.4953723055453,-755.0970899795179,379.53362925067273,271005.1631982764,174345.33475727256,427276.237862535,0,1995,1463,3
-1737.5786866614458,-794.3184458944972,359.24410234939006,268861.96681835974,171062.69094545845,413465.5881787342,0,1996,1463,3
-1724.2229467218485,-827.5116730147315,339.757228083687,267253.90514750604,167639.91950839167,398907.3680241478,0,1994,1466,3
-1707.7810961553434,-853.7534553111029,321.24190584631157,266153.08625862567,164090.4835643869,383684.2180185176,0,1994,1466,3
-1688.6366972039998,-872.2020383753955,303.82751697543824,265512.35056258313,160434.67803532188,367893.588821796,0,2010,1453,3
-1667.1907842886449,-882.1469081963272,287.60751538592973,265266.50218471064,156700.9160216879,351647.0987244634,0,2009,1452,3
-1643.8533510005632,-883.0658951303272,272.6431476898626,265334.78708093095,152926.45984181145,335069.8374249324,0,2008,1458,3
-1619.0380467522846,-874.674132355014,258.9750336846975,265624.82064953505,149156.6715137251,318299.79152507597,0,2009,1455,3
-1593.1513743612704,-856.963422473356,246.6315884215275,266037.90860683954,145441.98452125472,301486.07227222767,0,2007,1455,3
-1566.5789785969944,-830.2271425135739,235.62013917482446,266474.2830738399,141833.606800874,284786.10806234385,0,2008,1455,3
-1539.678190769062,-795.0616231554104,225.90909929264782,266837.8546516693,138379.30768328445,268361.67869677424,0,2008,1458,3
-1512.7769751359483,-752.3464024726215,217.41315419954657,267041.4087170222,135119.83119796318,252372.64948735852,0,2008,1456,3
-1486.1727747639097,-703.2127068403819,209.98557783094208,267011.25643406797,132087.11293852638,236970.3246479051,0,2009,1455,3
-1460.1229534701245,-648.9977650697579,203.42413792708984,266690.14836624253,129305.0809513598,222292.18195678794,0,2009,1452,3
-1434.8240267485664,-591.182161365545,197.49213375683567,266039.07038600434,126791.90497743161,208457.03003700555,0,2008,1451,3
-1410.3911954745774,-531.331648332014,191.94518261854947,265038.20573018794,124561.93164065188,195561.60819951483,75,2012,1455,3
-1386.8502714553379,-471.0545017824758,186.55684151138936,263686.44215398375,122626.46044806829,183680.10573601184,429,2010,1455,3
-1364.1407929255317,-411.9603912463838,181.1423638857353,261999.4036474474,120993.71563857482,172865.34414843828,1060,2009,1452,3
-1342.1274056763195,-355.61400014565703,175.5719891830492,260006.9742948648,119668.57416127562,163150.3318051914,1825,2010,1454,3
-1320.6258939435652,-303.4531617941956,169.75917090517643,257751.17660948948,118651.70645856939,154549.59855764415,2227,2010,1451,3
-1299.4452259983022,-256.6326023995882,163.62487003368287,255285.8600451582,117937.6856442979,147059.15654133592,2327,2010,1453,3
-1278.4262376904665,-215.84396558590203,157.0684460061387,252680.47329248892,117513.00790210503,140654.72136279978,2410,2010,1452,3
-1257.4639514110263,-181.21988638704676,149.9882057315824,250026.2317050944,117355.48782239936,135290.1973486603,2404,2011,1453,3
-1236.530965772056,-152.3948309709943,142.35603445024,247437.38039195957,117435.53999424617,130899.5066868385,2363,2011,1452,3
-1215.7093659830261,-128.7114619296656,134.29085911219397,245042.24610310092,117718.7761040802,127402.50378479854,2356,2010,1453,3
-1195.2034990428538,-109.44508389887001,126.07120792864279,242967.34480017,118168.30569489689,124712.41035691243,2297,2011,1452,3
-1175.3064987348714,-93.9259203149367,118.06962310283646,241321.06765856885,118745.51865000169,122742.65849576502,2291,2008,1455,3
-1156.3283116957114,-81.56557518616756,110.6427843446266,240181.02917827724,119410.1267930625,121412.8107338456,2130,2010,1451,3
-1138.5255993728324,-71.8439805794674,104.04875037352407,239588.892579228,120121.11471219924,120652.25692275933,2069,2010,1451,3
-1122.063699085163,-64.2907871689068,98.43358177690159,239554.13424369806,120839.65676878857,120400.26908729562,2101,2009,1453,0
-1107.0088529246723,-58.4748324931513,93.86415798340188,240062.56374605536,121533.43689518176,120603.35009027006,2164,2016,1452,0
-1093.3400403345115,-54.001641536430284,90.36194436034414,241083.42352516533,122179.79796111314,121212.35262474026,2217,2016,1453,0
-1080.972473577113,-50.51599993171428,87.91352726787918,242572.68314689567,122765.69583857906,122181.14141130024,2278,2032,1454,0
-1069.7855824414523,-47.70996514135143,86.46257015286065,244474.9338528424,123285.26824750256,123466.93813793546,2318,2029,1453,0
-1059.6485151400602,-45.33576163644633,85.9011468970102,246726.12533109766,123737.41392248434,125031.54998806257,2325,2044,1454,0
-1050.441116833675,-43.2177208189582,86.07525847239151,249256.6783816252,124124.76728190146,126842.35731870096,2340,2036,1453,0
-1042.070491889251,-41.25404002475731,86.80841099709073,251994.73615682506,124453.50948634115,128872.12607871236,2323,2047,1451,0
-1034.4764132063128,-39.40423457118402,87.93246864717341,254870.31748992897,124732.8490871055,131097.58053919164,2304,2045,1450,0
-1027.6251963089176,-37.67104795968331,89.30817135514843,257819.53612839486,124973.71927935642,133497.51075810482,2271,2047,1455,0
-1021.5008874322685,-36.08578700153771,90.82654221421797,260787.48186982388,125186.76208496102,136051.1771578337,2249,2047,1453,0
-1016.0950589516041,-34.69516845394507,92.3975464987394,263729.8205654652,125380.06920413008,138737.19753880188,2172,2036,1456,0
-1011.394493744868,-33.548734752520495,93.93899923177995,266613.2426717129,125557.74416477494,141532.93442459364,2138,2045,1451,0
-1007.3721968906269,-32.68886506348106,95.37283708573662,269414.5212343165,125720.02634667102,144414.56921163615,2073,2047,1455,0
-1003.9848175929241,-32.142086924705616,96.62751420521172,272118.48360705265,125864.59505020856,147357.82746757657,2020,2052,1455,0
-1001.1752289774903,-31.912416634683396,97.64278994947708,274715.70777670725,125988.05940564226,150338.81170731699,1948,2066,1453,0
-998.8788289313663,-31.980779797332445,98.37467428649515,277200.509743863,126087.02111743292,153334.5838251161,1821,2065,1451,0
-997.031699314046,-32.311408179089604,98.79915092450408,279569.2607139984,126158.71510079122,156323.64771986235,1764,2070,1453,0
-995.5771557845022,-32.86109296507033,98.91237118783552,281819.1711375868,126201.23267254792,159286.286611795,1610,2082,1454,0
-994.4678497212924,-33.586869861170726,98.72542275213401,283947.75689224806,126213.25877244178,162204.65513045143,1525,2077,1452,0
-993.6637018999589,-34.45065847483611,98.25568273099229,285952.8188844767,126193.54951033503,165062.80260256413,1412,2096,1455,0
-993.1282085062994,-35.420623707609046,97.52028265408426,287832.5568453476,126140.57392700054,167846.64261864533,1313,2081,1454,0
-992.8258193299046,-36.47031138623513,96.53501577278267,289585.6456173133,126052.57158123112,170543.8619630652,1175,2081,1454,0
-992.721668039138,-37.57817558350145,95.31714359176169,291211.3408448299,125927.91123386647,173143.92983883462,1021,2083,1454,0
-992.7830597490234,-38.728668048141145,93.88868416058978,292709.5882894904,125765.43007184852,175638.15804036692,879,2094,1454,0
-992.9810765429796,-39.9136358282713,92.27808964409152,294081.1104237678,125564.54744565672,178019.70513595882,794,2099,1454,0
-993.2912501764199,-41.132597819160445,90.52061618538409,295327.5788104481,125325.1964509986,180283.58202462833,703,2106,1456,0
-993.6934553455405,-42.391286132460806,88.65816978314267,296451.8048764895,125047.72149735794,182426.5949749345,614,2125,1454,0
-994.1714571700209,-43.69807769946541,86.7376969184106,297457.7724981045,124732.8034840484,184447.12250443027,561,2144,1455,0
-994.7121841858138,-45.05929254167554,84.80728110941646,298350.5085114624,124381.3860779339,186344.79006311749,470,2172,1462,0
-995.3049044393415,-46.47578053413547,82.9119974135076,299135.86671133427,123994.62359820785,188120.11224970518,415,2190,1632,0
-995.9408698412826,-47.941826501803114,81.09219249727603,299820.2512061011,123573.91331270298,189774.14110100485,376,2192,1638,0
-996.6135516032474,-49.44561050337672,79.38377918261239,300410.2748257833,123120.99992669983,191308.17942026147,326,2164,1476,0
-997.3188661737391,-50.97060865786736,77.81862239926778,300912.3941411018,122638.07019700647,192723.57816067204,291,2176,1651,0
-998.0547772280623,-52.49820464334871,76.42427250409285,301332.5977780312,122127.75296034128,194021.64900014535,230,2156,1516,0
-998.8202478547304,-54.0115954518743,75.22322659346193,301676.18228867813,121593.01193848623,195203.72322070677,188,2171,1662,0
-999.6140388199206,-55.49932154703053,74.23247506756206,301947.63770749327,121037.02915247274,196271.24953299796,132,2169,1662,0
-1000.4337281074942,-56.95649686214445,73.46399804539752,302150.66789644584,120463.14809850045,197225.82885967888,123,2157,1678,0
-1001.2751261410032,-58.383834673703156,72.9253645329361,302288.30583826435,119874.84180532953,198069.22442645705,137,2157,1677,0
-1002.1320203321907,-59.78586278867715,72.61945443518711,302363.025143334,119275.68472496269,198803.3639525974,90,2140,1542,0
-1002.9959151961828,-61.16958649807005,72.5442255501072,302376.8000118368,118669.33031286369,199430.33591917838,55,2153,1707,0
-1003.8560906891057,-62.54418751487254,72.69363610516488,302331.1386713837,118059.49467240003,199952.42796490475,45,2151,1704,0
-1004.7005964011962,-63.921315644521954,73.05917429251471,302227.11049364385,117449.97591221839,200372.18187006086,18,2162,1697,0
-1005.5181570203728,-65.31475293811852,73.63093832988976,302065.4008695791,116844.6721253035,200692.40211363236,24,2130,1548,0
-1006.3005898004761,-66.73900608537879,74.39796084495525,301846.45029052906,116247.50559116378,200916.11840873875,5,2147,1647,0
-1007.0447589115017,-68.20777475014644,75.34820806556445,301570.67586695333,115662.28095635872,201046.51775147152,12,2145,1734,0
-1007.7533586839686,-69.73308276076081,76.46916650720277,301238.74777617166,115092.56161845305,201086.83571592806,13,2149,1742,1
-1008.4353429655653,-71.32478817885773,77.74943468125468,300851.8989664633,114541.57779602564,201040.2035130853,5,2179,1740,1
-1009.1066157865579,-72.98998777782298,79.18047892889163,300412.1711634178,114012.17534425705,200909.48365884382,0,2206,1753,1
-1009.7900442253224,-74.7323138830998,80.75761851793641,299922.4778341039,113506.78071980574,200697.11191208297,0,2215,1763,1
-1010.5141474716505,-76.55136310242771,82.48010785127008,299386.49069335393,113027.31635953266,200404.94254371707,0,2227,1762,1
-1011.311381059534,-78.44252397680687,84.3505443660832,298808.4820234183,112575.0912779346,200034.139498799,0,2221,1791,1
-1012.2172018214706,-80.39749817946733,86.37409768024185,298193.19679254724,112150.71594959941,199585.13366932812,0,2224,1793,1
-1013.2700405863411,-82.40540909572908,88.5582021063194,297545.7098274032,111754.03068292799,199057.60856173967,0,2214,1796,1
-1014.511679695848,-84.45369619956199,90.91280517058004,296871.26350396796,111384.07803252467,198450.51076082062,0,2202,1807,1
-1015.9876388331751,-86.52811470430301,93.45075550902565,296175.08328082407,111039.16844588504,197762.0939183597,0,2227,1795,1
-1017.7471050018473,-88.61197705183368,96.18811377010128,295462.1362488428,110716.99832349324,196989.97210903704,0,2191,1819,1
-1019.8421827139375,-90.68508115628214,99.14423647740102,294736.91824699374,110414.7339440844,196131.18246673205,0,2143,1848,1
-1022.3269358779304,-92.7224897400671,102.3413616555823,294003.35609677795,110129.02171123626,195182.28013656678,0,2132,1877,1
-1025.2567993729979,-94.69370071556386,105.80390631585652,293264.77155099023,109855.9588357894,194139.46616715624,0,2139,1858,1
-1028.6894063955326,-96.56415521322117,109.55712304100695,292523.8061291943,109591.08326342212,192998.71270711857,0,2112,1825,1
-1032.6880780292395,-98.30037481682865,113.62326312495229,291782.2545950251,109329.39422029897,191755.8356750848,1,2116,1832,1
-1037.3256061408151,-99.87620464289773,118.01479948510236,291040.95243642584,109065.3253849618,190406.53803478772,3,2083,1774,1
-1042.6827330943213,-101.27563044388097,122.72742294578387,290300.0416606223,108792.59211895439,188946.4506052765,0,2043,1819,1
-1048.840482837477,-102.48999289250331,127.7365718256294,289559.7170964977,108504.06225687347,187371.10127951816,0,1980,1879,1
-1055.8725386318106,-103.51252122515511,132.99939713193692,288821.07360189,108191.94533420312,185675.82740633193,0,2025,1843,1
-1063.8428853543842,-104.3355034754452,138.46131162011682,288086.5648817766,107848.41560666343,183855.73398012653,0,1976,1873,1
-1072.8072416160912,-104.95049667273842,144.0645340428006,287359.9848084079,107466.46081664167,181905.73399772742,0,1986,1892,1
-1082.8141579112853,-105.34836566325906,149.7546499260361,286646.2722170529,107040.50569143699,179820.7045711987,0,1877,1955,1
-1093.9051663140963,-105.51864363753633,155.4826971060273,285951.43665650295,106566.4824262069,177595.73435321604,0,1886,1960,1
-1106.1155911792582,-105.44888575853614,161.20404587249018,285282.62186300434,106041.4245218199,175226.36004876168,0,1828,2007,1
-1119.4756905673519,-105.12400481429282,166.87586484803424,284648.1676396729,105462.94427671279,172708.77686785386,1,1779,2051,1
-1134.0109560035278,-104.5262476135945,172.45347695698598,284057.577222316,104828.87950763029,170039.98284724908,2,1743,2071,1
-1149.741497119478,-103.63609649393437,177.88619070577363,283521.39679622644,104137.14591332186,167217.7716258956,0,1605,2162,1
-1166.6802648114349,-102.43316253110366,183.1145981236921,283051.1119725866,103385.79628306173,164240.67717318653,0,1558,2212,1
-1184.8296134639018,-100.89628467984515,188.0708632856788,282659.1018429979,102573.34952256765,161107.93444488585,0,1457,2304,1
-1204.176467580888,-99.00305340033766,192.6818266879211,282358.5715676433,101699.33995761996,157819.363724599,0,1393,2352,1
-1224.687110279061,-96.72900432707175,196.8753279082387,282163.3994983517,100764.84446055409,154375.29642181456,1,1290,2424,1
-1246.3033641362,-94.04608524508083,200.58952057183382,282087.8522075127,99772.77681922975,150776.7056990242,0,1213,2512,1
-1268.941336728342,-90.92065613820114,203.78103060546053,282146.13141381176,98727.92473463745,147025.46782410654,8,1171,2557,1
-1292.4923953795294,-87.31213968503138,206.42761925434237,282351.6584017743,97636.6178108765,143124.60403268848,0,1055,2603,1
-1316.8249297646662,-83.17293198496215,208.52491808365522,282716.0402770401,96505.93792712758,139078.44575034833,0,942,2641,1
-1341.7844220051065,-78.44993028736698,210.07943660847965,283248.0276208989,95342.83428154497,134892.8801998007,0,853,2674,1
-1367.1910759719638,-73.08895955833829,211.0997050829745,283952.7846889871,94153.52471132157,130575.80620692781,0,774,2728,1
-1392.8369535441786,-67.04267105546049,211.58668993055562,284831.4063662598,92943.18420733119,126137.67638787163,0,723,2742,1
-1418.483620531576,-60.27912570594235,211.5262254278221,285880.59111494775,91715.93035606222,121592.0096121844,1,634,2787,1
-1443.8604943161959,-52.78793886334807,210.88577826295287,287092.53606387257,90475.19741665138,116955.73552612802,0,519,2832,1
-1468.664587055378,-44.58416666209094,209.61494591714586,288455.06901428977,89224.41236478988,112249.23842622226,0,443,2863,1
-1492.5607251534677,-35.71081934508006,207.64849091987463,289951.8870734407,87967.72722687376,107496.30234836528,1,424,2891,1
-1515.1816271215603,-26.23955628672773,204.9127514668353,291562.82200446783,86710.66254915636,102724.0518645619,0,411,2889,1
-1536.1294645468643,-16.26960697369771,201.33661977741383,293264.1566272517,85460.69409707912,97962.71268949132,0,343,2929,1
-1554.979654044637,-5.9260674119291155,196.8646395157464,295028.8297896598,84227.75931640013,93245.39693620933,0,342,2934,1
-1571.2885313244221,4.642328625938161,191.4697326632796,296826.28173170204,83024.539231249,88608.14412879472,4,362,2910,1
-1584.6064567183591,15.266498789902638,185.16549942152497,298621.9355615163,81866.4133354527,84090.06092292414,0,388,2900,1
-1594.4921618376395,25.759920672857554,178.0147755569059,300376.52710153075,80771.09647967163,79733.56328618717,0,439,2863,1
-1600.5248844762054,35.91972295531307,170.13060117930294,302045.6054407284,79757.82940727416,75584.72494492507,20,470,2826,1
-1602.3163930882915,45.52781969449005,161.6701362739217,303579.4785971718,78846.0299640887,71693.46972574004,16,527,2774,1
-1599.526162488115,54.35691038650486,152.81967874112726,304923.7321489807,78053.91287172558,68113.50698845538,14,653,2657,1
-1591.880344574947,62.183319655720226,143.76926688597055,306020.7966604651,77397.5938984724,64901.76447512717,18,749,2560,1
-1579.189397299886,68.8007798856627,134.6855845209385,306812.94411968417,76890.60271851528,62117.005379803806,14,895,2435,1
-1561.3586854569485,74.03093265123344,125.69057426257748,307245.90686644276,76543.78773924526,59818.095763856036,9,1079,2277,1
-1538.3913029071332,77.73466177392851,116.84489559141299,307272.75993029104,76365.98134802737,58062.25057080464,3,1158,2207,1
-1510.385010437425,79.8256605033614,108.14145118084491,306858.6578210747,76365.54780662,56902.97053475029,0,1247,2134,1
-1477.52406538818,80.28450742337454,99.5194649030606,305985.3421558661,76552.18293023069,56388.04236671541,12,1441,1992,1
-1440.0631919577252,79.17320112505416,90.89709002970399,304653.81994808535,76938.11852849837,56558.130029662425,10,1511,1921,1
-1398.3057027028847,76.64359643261479,82.20518033066571,302885.5903066715,77538.312599816,57445.90088431796,2,1671,1759,1
-1352.5864958600487,72.92972762394614,73.40976094508453,300723.30944577156,78369.49118788473,59075.61159411868,8,1732,1727,1
-1303.2656486880119,68.32025186126896,64.525955842352,298230.54730781115,79447.75885558568,61463.019642819796,0,1784,1671,1
-1250.7297110464485,63.11989503759445,55.6255196400507,295489.66989290365,80784.84217616614,64615.509598513636,0,1783,1649,1
-1195.3974491339663,57.618664998047244,46.83470321132415,292597.7933544554,82384.34848066891,68532.74580735878,0,1791,1642,2
-1137.724560857196,52.071996520751554,38.32018886030912,289660.55511931,84239.490977622,73208.43438525013,0,1853,1589,2
-1078.2017570253904,46.679170537685046,30.26151659289232,286783.3164352865,86332.34343988379,78632.81018612899,1,1881,1550,2
-1017.3485073078677,41.56184281406201,22.816836460088368,284062.5194492282,88634.32495011378,84794.02503477532,5,1905,1537,2
-955.7041136492498,36.75770250549411,16.09393389211943,281580.14290664473,91108.50958581617,91677.44160627438,3,1945,1501,2
-893.8139659469675,32.234389355909805,10.131878978669512,279400.8510130437,93714.13401398482,99263.80360726654,0,1942,1510,2
-832.2162610607088,27.9152928587173,4.897495598703196,277571.1425280317,96411.6676295747,107527.61207903251,0,2009,1458,2
-771.4333135549512,23.7115345247142,0.30127444360024874,276120.69674185535,99166.82566777358,116436.52108033364,0,2011,1452,2
-711.9638095554567,19.559744619825164,-3.7714950772648748,275065.3404794987,101953.58397212256,125951.88383681834,0,2008,1453,2
-654.2771376971084,15.456036223798671,-7.429686762911092,274410.2640647994,104755.7507624415,136029.68475225192,0,2010,1454,2
-598.8106146819999,11.474646621252747,-10.75647027253841,274152.8236768264,107566.05145196118,146621.65253350063,0,2010,1453,2
-545.9644849343232,7.770240807479175,-13.797808734370623,274285.27282268537,110383.01144254394,157677.11970272,0,2010,1451,2
-496.0963549622777,4.566150203220305,-16.556627252167523,274797.0905508368,113207.31060636975,169144.97724697192,0,2011,1452,2
-449.52055982996717,2.1262790162155856,-18.99672624039507,275676.0974899855,116039.01089559148,180975.0778622016,0,2010,1452,2
-406.51156857815926,0.7118248981905035,-21.05677322694924,276908.33326552267,118875.83785381695,193119.56456336472,0,2009,1453,2
-367.3090850441926,0.539429295868102,-22.666788732941328,278477.20133457746,121712.46536830495,205533.72363802124,0,2007,1454,2
-332.12404843794644,1.755525862421289,-23.76109989172394,280362.4810105766,124541.14954080565,218175.87824238176,0,2005,1454,2
-301.14382165167933,4.424527255267277,-24.28780218407501,282539.6711987128,127353.60755195009,231006.90787285432,0,2006,1453,2
-274.53445990838924,8.528343553814926,-24.214554919846698,284979.9132114455,130143.03862473714,243989.53412897905,0,2011,1455,2
-252.43985872435627,13.977339038114218,-23.529676747405503,287650.574027658,132905.39444801342,257087.24506071527,0,2010,1451,2
-234.98046334704753,20.62587568994409,-22.23929769426946,290516.280791821,135640.02382565278,270263.19325400057,0,2006,1454,2
-222.2530886955853,28.28804311522834,-20.360450059637433,293540.28694831155,138349.90267870043,283479.58498328936,0,2008,1456,2
-214.33081997023137,36.75483603769761,-17.90948176613497,296686.20113704057,141041.41180307753,296697.84296435426,0,2010,1451,2
-211.26298659134144,45.8091492029611,-14.88976581600608,299919.5139579212,143723.67163571238,309878.92497868265,0,2010,1453,2
-213.0756088247243,55.23420163198417,-11.284286204856762,303208.4126794173,146407.3999077275,322983.4886883547,0,2006,1455,2
-219.77138274991316,64.81731005882646,-7.053850057920132,306524.162022513,149103.362498051,335972.44867734995,0,2009,1453,2
-231.3282207205456,74.35123972593169,-2.139216240160279,309841.2140778524,151820.8328833312,348807.54424610257,0,2006,1454,2
-247.6961594723174,83.63416861495908,3.533681410430975,313136.96397789376,154566.46665280272,361451.5441678446,0,2007,1455,2
-268.7936583818501,92.47025067674261,10.046903483245899,316391.2861312867,157343.64847483655,373868.6581407129,0,2006,1456,2
-294.5048251365653,100.67111575236801,17.48474275977802,319585.9545760704,160152.2475734851,386024.87865228136,0,2006,1455,2
-324.67915290229206,108.05735730827922,25.930097760531567,322703.9591073719,162988.8756516278,397887.8621295455,0,2006,1455,2
-359.13493176818315,114.45990091340596,35.46201390300154,325728.78581787174,165847.65335236516,409426.8367429702,0,2006,1454,2
-397.664103874219,119.72123819076192,46.152982489578804,328643.6938717585,168720.98924383774,420612.40770627576,0,2006,1454,2
-440.0361105700995,123.69688362396334,58.06339711845759,331430.9323522164,171599.93958221434,431416.06259343727,0,2005,1454,2
-486.00161916419546,126.25765007070768,71.23182723289224,334070.9198087073,174474.2818777108,441809.9021714906,0,2009,1451,2
-535.2949064473227,127.29156882360981,85.665166678576,336541.5698787698,177332.47893038444,451766.525840894,0,2010,1451,2
-587.6337205034691,126.70281759528817,101.3345271236287,338817.9558924744,180161.73607218332,461258.84996568965,0,2009,1451,2
-642.7195292521582,124.40624807607404,118.17755806086201,340872.3023582117,182948.40102402397,470260.165783175,0,2010,1453,2
-700.238537450835,120.31936824679082,136.10252713519273,342674.0811380197,185678.49023551284,478744.1889570861,0,2009,1452,2
-759.8628130747162,114.35387358818254,154.99050557176687,344190.2264312969,188338.07441785507,486684.8419954374,0,2008,1454,2
-821.2530360051236,106.40687963745114,174.69579860607718,345385.7307150162,190913.61151492406,494056.1416124205,0,2009,1453,2
-884.0606631193253,96.3540846636589,195.0456771727466,346224.5811206512,193392.17198599403,500832.1289187966,0,2008,1453,2
-947.9279355836878,84.04878096022728,215.8421463405193,346671.0614245203,195761.46506967928,506986.6537629082,0,2008,1452,2
-1012.4881859607234,69.32771876454005,236.86905382362772,346691.5921585461,198009.7971673623,512493.2411166276,0,2009,1453,2
-1077.3645002336561,52.021550971358565,257.9019696787789,346256.5971587885,200125.95400557155,517324.93175750924,0,2007,1453,2
-1142.1642162790768,31.96784421970289,278.71713396197276,345341.87640292925,202098.92242476213,521453.9973220503,0,2010,1453,2
-1206.4729011549089,9.025526531279322,299.1005904499366,343929.6986418442,203917.5423019609,524851.889296773,0,2008,1452,2
-1269.8510781532304,-16.912568874338792,318.85621463867443,342009.6584917199,205570.19924054045,527489.4798617751,0,2008,1454,2
-1331.8364969905012,-45.91235478471047,337.8088923591188,339579.00018229196,207044.63472370987,529337.4483811281,0,2008,1453,2
-1391.9540357471308,-77.99592581774097,355.8031182644596,336642.49683864793,208327.9167500559,530366.8577044719,0,2010,1451,2
-1449.7272680247813,-113.14085995733755,372.6997293248742,333212.3919428622,209406.45852886568,530549.7465720887,0,2010,1452,3
-1504.6874583408685,-151.27799413591893,388.37384592427236,329308.75150389323,210265.96174683495,529859.5825922631,0,2012,1451,3
-1556.3830052958817,-192.2852825633009,402.71532238935913,324960.0991704078,210891.3306842349,528271.7103576346,0,2011,1451,3
-1604.3873702475275,-235.9777398869423,415.62973893175337,320204.03120774415,211266.6375645411,525763.785141059,0,2009,1454,3
-1648.303927339285,-282.09693695990484,427.0386465264386,315087.438268835,211375.20609865108,522316.0898916035,0,1994,1465,3
-1687.7722301765518,-330.30432037789984,436.8796739696903,309666.038428413,211199.87494188093,517911.85576248594,0,1992,1465,3
-1722.475351039496,-380.17997817968006,445.1057508278465,304003.4040908918,210723.44599984237,512537.82718277985,0,1978,1475,3
-1752.1476461348827,-431.22902617952053,451.6817595223619,298169.32780354103,209929.5316206056,506185.20361680724,0,1971,1483,3
-1776.5867088581047,-482.8959050029096,456.5793900729046,292237.1822487162,208804.02823712234,498850.8998504718,0,1962,1488,3
-1795.666300164312,-534.5772541928624,459.774516308825,286281.2570816765,207336.8543099718,490538.9419426117,0,1961,1493,3
-1809.3439122374818,-585.6253950288082,461.2518122525809,280374.88537994976,205523.47139782796,481261.72125661676,0,1942,1508,3
-1817.6635004080676,-635.3460985800781,461.0151675111794,274588.8655673082,203366.03035958286,471040.9469886985,0,1936,1514,3
-1820.7550253923937,-682.9963738904721,459.0955635036683,268990.2271849231,200873.83732789374,459908.4488466597,0,1938,1515,3
-1818.8288820919827,-727.7873785648402,455.5494607964867,263641.4637151041,198062.65913975137,447906.6587781272,0,1930,1518,3
-1812.1641434963103,-768.8955959795132,450.44834706496835,258599.5826162032,194952.98392664338,435088.4244376547,0,1932,1519,3
-1801.0955292133774,-805.4770249981698,443.8666638931946,253914.94172019052,191568.34157298686,421516.72166403336,0,1930,1519,3
-1786.0053055418518,-836.6832718804267,435.87523386756146,249629.9332427142,187934.61949456486,407264.6314398396,0,1939,1510,3
-1767.3197383461645,-861.6856005040911,426.5420871184603,245777.1113985731,184080.2813639686,392415.08126857906,0,1936,1514,3
-1745.5025336869269,-879.7033314204195,415.93824893525647,242377.27200448405,180037.09714924885,377060.59795020946,0,1941,1510,3
-1721.034492472604,-890.0364161426464,404.14512641717175,239438.23260449755,175841.12601888922,361303.34097714914,0,1946,1503,3
-1694.3832178768946,-892.1118956028852,391.26234022797274,236954.28396068944,171533.76902481203,345255.08255303494,0,1971,1485,3
-1665.984449951712,-885.5349764209305,377.4179645110517,234906.32442639276,167162.63066517867,329037.58186288987,0,1957,1495,3
-1636.243805109672,-870.1283757610454,362.7798941157013,233262.72107607426,162781.257052302,312782.9559446007,0,1974,1478,3
-1605.547005896364,-845.9627595403432,347.5559137677479,231980.51620858684,158446.87040399437,296632.3838983935,0,1971,1482,3
-1574.2664376555354,-813.3819099084002,331.9753646764233,231006.8328792887,154216.83670505392,280733.2662125475,0,1972,1481,3
-1542.7588883333528,-773.016164835204,316.26279480481975,230281.44765097467,150144.95721835498,265235.0287955816,0,1977,1479,3
-1511.3563196826442,-725.778365093027,300.6129310566216,229741.19406169513,146278.02223964085,250282.85650953217,0,1977,1479,3
-1480.356796843984,-672.8410762837282,285.17277824796247,229324.79440547246,142653.786600641,236011.35676545734,0,1993,1469,3
-1450.0163227998016,-615.5898993285393,270.04010930227776,228976.85018006997,139301.21527293255,222539.79876804104,9,2013,1452,3
-1420.536614949055,-555.5537210247561,255.28091249389797,228651.11379703242,136242.13934766632,209967.8352808875,59,2013,1453,3
-1392.0530676260082,-494.33885866966864,240.95432671700146,228312.41208198338,133493.0059069245,198372.47416908047,304,2013,1451,3
-1364.6326715961827,-433.5772204784391,227.12546223425014,227936.05729897556,131065.90025262767,187807.73943538312,696,2011,1454,3
-1338.2836556603445,-374.86234579171065,213.8551821478556,227505.1129078694,128968.52647411518,178306.02272450342,1022,2010,1451,3
-1312.9724706979384,-319.66296860921636,201.17399399060264,227007.7853162522,127203.41574589311,169879.78474725556,1282,2012,1453,3
-1288.6435206962053,-269.20338376471574,189.0581409373669,226438.2197922462,125767.03828540443,162522.68956378035,1413,2009,1452,3
-1265.2342693902224,-224.3021208767907,177.427407466737,225802.502015749,124649.5180948158,156209.43236149824,1573,2011,1449,3
-1242.6828143551395,-185.24527032688846,166.1788086470839,225127.3675662625,123835.38049970177,150895.15751846423,1685,2010,1450,3
-1220.9418372375976,-151.80803870533083,155.2582516652848,224466.0862879549,123305.1414471559,146516.87520209953,1740,2013,1452,3
-1200.0063451141696,-123.43418937638006,144.7306778166983,223895.36957662093,123036.45152555044,142998.5662099495,1650,2010,1453,3
-1179.9336698428394,-99.46078243334514,134.78081500165138,223501.2695408735,123003.26732063755,140258.86954917785,1575,2011,1454,3
-1160.8371828103466,-79.26851882069549,125.64354945862259,223362.06227042712,123173.61725400502,138217.96483409894,1549,2016,1453,3
-1142.8582384034446,-62.32976795565272,117.52365928564959,223537.81343430327,123508.49741479423,136801.51081005446,1573,2024,1453,3
-1126.1267938580622,-48.19624192849236,110.53865778761669,224067.6556860571,123963.53094493416,135941.99053374326,1643,2011,1451,3
-1110.72697187058,-36.47176029619499,104.69674416461196,224971.51445695877,124492.803188631,135578.2811884268,1648,2020,1454,0
-1096.6835799070493,-26.792762148219015,99.91583627903705,226253.7199269496,125053.60933720667,135654.0274273554,1698,2012,1456,0
-1083.9682308969525,-18.8185266261878,96.06718845160896,227906.44005311973,125611.02978504238,136115.6838063394,1759,2029,1452,0
-1072.5139745895774,-12.228222207399323,93.01269573052066,229911.44313064858,126140.54470490228,136911.41185652866,1835,2030,1453,0
-1062.2313755485086,-6.725634518128605,90.61845106883615,232240.33379002236,126627.45363035458,137991.6521300197,1924,2040,1453,0
-1053.0233461516539,-2.0500210186071786,88.75375389697912,234854.84930149312,127064.1895902733,139311.00295601922,1985,2046,1449,0
-1044.7957533914332,2.012775764723947,87.29165035072819,237708.1607731153,127447.76598764365,140830.03474401988,2063,2042,1453,0
-1037.462801694068,5.622837689792089,86.11609352325462,240747.46963870464,127778.39458147844,142515.93815833505,2104,2061,1452,0
-1030.9505180280628,8.881615468045064,85.13153314214392,243917.8930297278,128058.55052653172,144341.8196468038,2117,2057,1455,0
-1025.1996558819776,11.83095710734433,84.26801044987765,247166.3242964092,128291.71773647865,146285.01718348908,2173,2042,1448,0
-1020.1646198628322,14.461241078447285,83.47872588560185,250444.3721818369,128481.10912556903,148325.25136663363,2159,2041,1450,0
-1015.8067235232286,16.730732964074058,82.73274551544631,253710.82007381305,128628.91704401284,150443.32885166584,2164,2045,1452,0
-1012.0858740573804,18.5875708788408,82.00817180775202,256933.20262305604,128736.18182993535,152620.45036810692,2181,2047,1455,0
-1008.9552045910671,19.986447527064428,81.28933376695821,260087.74629728508,128803.06974148598,154837.95463439848,2163,2042,1454,0
-1006.3597074440305,20.901122760652733,80.56729188622138,263157.90602073196,128829.36887144911,157077.50203742197,2124,2033,1455,0
-1004.238463541126,21.333390821328447,79.84109084394835,266132.0895287901,128815.07060796942,159321.62333644085,2034,2047,1453,0
-1002.5285918950743,21.315963324722986,79.11778039229856,269001.374634322,128760.85012488262,161554.24713929702,1971,2068,1449,0
-1001.1689236792072,20.90725918587981,78.40950444247198,271757.88281385787,128668.29519043383,163760.98021586402,1883,2066,1454,0
-1000.1034809026179,20.178121812159784,77.72734923869804,274393.83584515954,128539.88992604765,165929.298471267,1801,2064,1452,0
-999.2844511202225,19.19634292119449,77.07498761440033,276901.1754461799,128378.8131790406,168048.65706330913,1668,2051,1465,0
-998.6730365888621,18.016034617414565,76.44589287843836,279271.85065153055,128188.58474836742,170110.4108314398,1586,2047,1468,0
-998.2377328488312,16.673175082783352,75.82476443746147,281498.7394664818,127972.64034954575,172107.6021258036,1467,2042,1470,0
-997.9518391348525,15.186004804594033,75.19111813017759,283576.6598977869,127734.02365357438,174034.6738835159,1329,2036,1470,0
-997.7923228377587,13.559007177482565,74.52330380665103,285503.03980789654,127475.28064389863,175887.17574075432,1208,2031,1482,0
-997.7398698217756,11.788461038887476,73.80276668666488,287278.3401015008,127198.43383899557,177661.56656156774,1081,2033,1484,0
-997.7785859765781,9.86730111531131,73.01792747120501,288906.1986965758,126904.9548175562,179355.10032783615,1039,2039,1481,0
-997.8947785156829,7.7889118091910285,72.16634602766038,290393.0761080513,126595.7852069057,180965.7769234372,968,2042,1484,0
-998.0753694388725,5.551020135710499,71.25497008653815,291747.45859838545,126271.44324832609,182492.39119178287,916,2055,1485,0
-998.3067742792507,3.159313962964277,70.29919236438379,292978.9137254607,125932.18034332141,183934.59170396157,877,2064,1491,0
-998.5745034165628,0.629045295109183,69.32125022099618,294097.1734586927,125578.15611319095,185292.8710258853,763,2063,1488,0
-998.8632479363635,-2.0163868452231575,68.34823247289135,295111.25229675183,125209.64082869614,186568.5421143434,643,2074,1499,0
-999.1575200663978,-4.749140744395021,67.41005027260977,296028.7471573716,124827.20507212704,187763.69626759816,546,2082,1501,0
-999.4431994726922,-7.541348439276493,66.53692468518848,296855.52519648446,124431.78363099371,188881.10045128595,480,2098,1494,0
-999.7095869457237,-10.369125223322184,65.7555280314851,297595.78460226674,124024.5666652173,189924.05466118274,427,2072,1502,0
-999.9506563177864,-13.215079991698312,65.08503135226992,298252.3259301498,123606.82219340738,190896.21432796988,381,2056,1512,0
-1000.1647570758084,-16.068969813336818,64.535475819467,298826.98971553665,123179.77306719878,191801.37916459938,312,2105,1513,0
-1000.3532509380304,-18.92721191622586,64.10897288309798,299321.2676829754,122744.55699825083,192643.28357407122,303,2110,1518,0
-1000.519060173027,-21.791670341076113,63.80247246064075,299736.85585183237,122302.25676934364,193425.41502934025,254,2121,1525,0
-1000.6656496327823,-24.667584286909324,63.61118807805511,300075.9329133139,121853.9535134138,194150.88516125246,196,2103,1540,0
-1000.7962947216924,-27.560611196402387,63.532237465346086,300341.23027539067,121400.73581904416,194822.37833765795,175,2123,1524,0
-1000.9136212503468,-30.47388073006934,63.567200665913795,300535.9900788381,120943.66117672183,195442.15950845653,156,2120,1558,0
-1001.0196976568158,-33.40642424599733,63.72220371531749,300663.82628045283,120483.68333921127,196012.12949534776,143,2146,1591,0
-1001.1165585366834,-36.35336751706229,64.0056614158743,300728.5291026395,120021.54136109479,196533.93378164634,135,2105,1578,0
-1001.2066636495462,-39.30713717904691,64.425231073022,300733.89948904177,119557.66214844056,197009.06348415557,79,2102,1583,0
-1001.2931312684238,-42.2588651941704,64.98546171671813,300683.6795483523,119092.1326378994,197438.89711112427,79,2089,1581,0
-1001.3800130678645,-45.19960456772169,65.68661936523058,300581.5688084287,118624.7389597774,197824.7076160142,50,2092,1609,0
-1001.4727303398166,-48.120983240401664,66.52482135656398,300431.27440455696,118155.06410144277,198167.63416991424,62,2102,1620,0
-1001.578536748865,-51.01523106586002,67.49350645091934,300236.54683868657,117682.63000950373,198468.5914207714,30,2108,1609,0
-1001.7071536772467,-53.87496989790899,68.58565233357027,300001.1784761138,117207.04157943625,198728.13595234923,21,2140,1764,0
-1001.8718844476772,-56.69283541115836,69.79604554217936,299728.9735885644,116728.0811049906,198946.33593438103,3,2154,1759,0
-1002.0906563396709,-59.46062436616254,71.12325700766996,299423.7032180928,116245.72324738053,199122.65952189759,15,2153,1762,0
-1002.3859164476127,-62.168102861656145,72.57066813204686,299089.04453371087,115760.0813327396,199255.8789487559,9,2147,1775,0
-1002.7834311012742,-64.802320863728,74.14570419428169,298728.48138868634,115271.29369082229,199344.00993159003,0,2154,1786,0
-1003.3112961327128,-67.3479707727284,75.85739492851684,298345.15825975745,114779.37018424673,199384.30751120046,0,2130,1782,1
-1004.0000763058451,-69.78824388069867,77.71374694482226,297941.7566260949,114284.09542472588,199373.29716300982,0,2145,1813,1
-1004.8835323803893,-72.1054649878024,79.7205729878095,297520.4484042139,113785.05849973984,199306.7948919914,0,2171,1811,1
-1005.99884480741,-74.2814551606552,81.88197725422452,297082.89260180807,113281.76334726663,199179.90207367434,0,2173,1819,1
-1007.3860858281356,-76.29772009137382,84.20149141877738,296630.2454608276,112773.75096329699,198986.9988973429,0,2173,1823,1
-1009.0875211134295,-78.1355884175073,86.68324454783605,296163.1722871441,112260.70022749277,198721.75384756408,0,2161,1848,1
-1011.1471474441687,-79.77666540880901,89.33317940659221,295681.8405564748,111742.49759478227,198377.1455136119,0,2195,1829,1
-1013.6103904919037,-81.20343193565898,92.16001962258066,295185.9100590061,111219.28325130838,197945.48967337483,0,2198,1843,1
-1016.5239533081383,-82.39918935215488,95.17574535615655,294674.5355371012,110691.46252209345,197418.47479946708,0,2181,1838,1
-1019.9359129074248,-83.34709969207248,98.39585669343369,294146.3664396416,110159.66468056539,196787.23057565995,0,2172,1856,1
-1023.8958541194854,-84.02932891099417,101.83930168090495,293599.5467452708,109624.67929285897,196042.45040750346,0,2169,1881,1
-1028.4552981456682,-84.42770254818463,105.52751680668112,293031.7106724569,109087.38192385319,195174.53093706304,0,2170,1911,1
-1033.6695396929927,-84.52566335989209,109.48276339583033,292439.96510241367,108548.63125194641,194173.66751248817,0,2147,1927,1
-1039.6004530570426,-84.31150783258474,113.72485855170737,291820.9276598059,108009.14115112385,193029.93503640633,0,2154,1907,1
-1046.3164529925336,-83.783065424615,118.2637526223801,291171.00424641656,107469.21179600595,191733.468256689,0,2147,1950,1
-1053.8856210697895,-82.94779821992373,123.09058705666237,290487.05358213617,106928.2048689612,190274.78510710297,0,2132,1938,1
-1062.3654777058048,-81.8150281519471,128.17415275284483,289767.2628188279,106384.09113319678,188645.10479586906,0,2179,1961,1
-1071.7993867570679,-80.38970236170282,133.46451831140368,289011.8180569298,105833.60802025287,186836.4177972638,0,2090,1857,1
-1082.22215111588,-78.67354564718315,138.90062151624068,288223.0873129986,105272.9903792085,184841.33091892223,0,2107,1942,1
-1093.6668774793854,-76.66812338152603,144.41704124369744,287405.37630938215,104698.68505300181,182653.00194647766,0,2080,1870,1
-1106.167238427861,-74.37546330317345,149.94605303780673,286564.5902185209,104107.63579282074,180265.26432196514,0,2093,1931,1
-1119.7563159556485,-71.79734692887025,155.4160129731632,285708.0942753249,103497.15403418751,177672.78773345362,0,1963,1979,1
-1134.464683455093,-68.93559963560602,160.74931084412907,284844.8293993849,102864.61332053789,174871.24055010793,0,1919,2035,1
-1150.3182681554936,-65.79344593574747,165.860671326382,283985.54907677684,102207.18701387243,171857.4875843309,0,1859,2053,1
-1167.335345102863,-62.37625598641021,170.65586007885682,283143.05677471566,101521.72965931408,168629.80582724203,0,1805,2129,1
-1185.5224968002976,-58.690973031163615,175.03308904549183,282332.4373566176,100804.93100673678,165188.07897847716,0,1807,2165,1
-1204.8704185944302,-54.74498376591291,178.88910893631672,281571.2457665185,100053.82162274516,161533.944397324,0,1719,2201,1
-1225.350559513553,-50.54531382995534,182.1279483812914,280879.5220426371,99266.4360819755,157670.96250037724,2,1676,2218,1
-1246.9130426938336,-46.09771852991678,184.66996475742752,280279.4042177984,98442.36790721382,153604.74168817385,0,1611,2273,1
-1269.485778020232,-41.40505156947858,186.4609585290953,279794.261546331,97583.10391151499,149342.8524228723,0,1587,2288,1
-1292.9736666079375,-36.465821068834934,187.4788503567718,279447.6936758186,96692.076612433,144894.71553690956,0,1538,2336,1
-1317.2570692459974,-31.273869534045524,187.73415662669802,279262.5890520538,95774.29944946083,140271.63088014655,0,1471,2405,1
-1342.189880634346,-25.818937157231463,187.26405388174894,279260.0639954613,94835.58155151912,135486.80980825252,0,1384,2435,1
-1367.597288796506,-20.087882120707214,186.12345770653576,279458.41822746955,93881.71022254329,130555.47868944379,0,1260,2459,1
-1393.2739875094437,-14.067175791580622,184.37561249956119,279872.3259111912,92917.95606601863,125495.10678887521,0,1273,2486,1
-1418.9841645751394,-7.7471573003100485,182.08244912508917,280512.1339509538,91948.86883779195,120325.5645281684,0,1166,2507,1
-1444.4622790828869,-1.1271529907387694,179.29661232627893,281383.24998411787,90978.30295798418,115069.26322273642,0,1098,2540,1
-1469.4135803242432,5.779568565792577,176.05692600983534,282485.7479862487,90009.69845271244,109751.2938337787,10,1024,2579,1
-1493.515094552538,12.941274126286565,172.38640204419028,283814.17022556555,89046.54269205894,104399.35442330298,0,945,2601,1
-1516.4167008326933,20.304522633431414,168.2926238198734,285357.45360146434,88092.85538512617,99043.61531541469,5,821,2629,1
-1537.7431281272961,27.79366774367415,163.77226673638202,287098.9641806037,87153.61236210745,93716.64070874751,0,762,2653,1
-1557.0995053903403,35.31361285942909,158.82023545283138,289016.58866669715,86235.13182959342,88453.1733312076,0,699,2662,1
-1574.0793395921557,42.75405405179487,153.44031176318163,291082.69428839604,85345.39177661127,83289.97007841844,1,657,2681,1
-1588.273331978909,49.99336994271456,147.65401975098735,293263.7826426827,84494.11314861973,78265.87661387723,0,647,2695,1
-1599.2795337013645,56.90243611713762,141.50656853665467,295519.87599446287,83692.48924932785,73421.91401861042,6,629,2699,1
-1606.7115002263533,63.34755969002012,135.06827427181088,297803.8826665511,82952.68818405468,68801.38625606765,19,680,2663,1
-1610.2021468002313,69.18889322928138,128.4298450588852,300061.3919883437,82287.3513501418,64450.072039683444,12,758,2617,1
-1609.4078988749907,74.27194711250229,121.69368299525655,302231.2296737722,81709.26815951578,60416.32359446925,14,845,2535,1
-1604.0182493372017,78.41721128772382,114.9666602834403,304246.59734519426,81231.43754131452,56751.127398374556,6,971,2397,1
-1593.7753200445115,81.42008977190679,108.35537907510032,306036.9832071827,80867.56406944127,53508.04977707967,10,1138,2252,1
-1578.5038937061934,83.06753196407946,101.95926063038917,307531.3923578142,80632.67262620239,50742.65790785011,6,1299,2101,1
-1558.1402407813196,83.16403975568556,95.86003602362067,308662.2679902871,80543.29765674127,48511.40949285272,0,1474,1946,1
-1532.7455316634803,81.56106896571737,90.11056344910837,309369.65324776917,80616.84784386109,46869.88970257596,11,1665,1797,1
-1502.4991741698768,78.19053319621926,84.72714606890058,309606.09784158133,80870.4196342511,45870.09157316727,9,1724,1743,1
-1467.6769369529775,73.09425864711889,79.68974435187316,309341.285526305,81319.92543106014,45557.61707120063,2,1754,1707,1
-1428.6182138103368,66.43763381058086,74.9518732985846,308565.09748654085,81979.94548328848,45969.98329465901,4,1795,1676,1
-1385.685331940938,58.50680102956122,70.45815290220285,307289.69904090144,82863.78070256278,47136.10834999219,0,1820,1643,1
-1339.2307132442195,49.692835514884926,66.1646335282599,305551.0995222282,83982.97042648407,49076.64584651866,0,1809,1634,1
-1289.5871832840546,40.45747049634985,62.058090494691484,303409.271442705,85345.73110606639,51804.926320860555,0,1875,1586,1
-1237.07618593785,31.278427564921657,58.16986397605871,300945.8841145896,86954.30894058078,55327.9781554619,0,1887,1580,1
-1182.0221042133087,22.59347005255861,54.57737785520005,298259.89355049294,88802.29317527196,59646.90672646794,4,1868,1578,2
-1124.7677438392207,14.75996460373818,51.38954201739788,295460.75865563203,90873.12449313446,64756.615709582904,0,1900,1546,2
-1065.6899312108515,8.030571032792002,48.71807133592946,292658.83710863104,93140.14019367081,70645.59472825051,0,1915,1528,2
-1005.2121785921466,2.5456023429735186,46.64701748430151,289955.88787441805,95568.01401927171,77296.20834358921,0,1952,1491,2
-943.806703694805,-1.6601805371085063,45.21566081351742,287438.689514944,98116.10388920737,84685.56472709143,6,2009,1454,2
-881.9832092618691,-4.642742476242649,44.41675423030255,285175.17707199854,100743.89487674057,92786.53053555555,0,2011,1451,2
-820.2745506696001,-6.528576057890735,44.20376523129357,283212.66210350645,103416.36836186766,101567.8500235089,0,2011,1452,2
-759.2253287138108,-7.483994500122947,44.50481424010376,281578.9595357453,106107.02148171497,110993.41238647861,0,2011,1451,2
-699.3782074603985,-7.669808620781408,45.24288932541695,280286.0057737496,108798.58297325342,121021.87128856423,0,2012,1453,2
-641.2586719906678,-7.196391108473792,46.355067795533344,279334.1704257866,111482.021418871,131607.04697620487,0,2006,1455,2
-585.3607621379866,-6.0987243693129916,47.80227150607086,278716.2263892415,114153.84971387849,142699.29405493956,0,2008,1454,2
-532.131301619059,-4.333780546831725,49.57034478214364,278421.1530343861,116812.23845343152,154248.02225791846,0,2010,1454,2
-481.95820806401474,-1.7943762163598322,51.666546361695126,278437.0818069802,119453.60017378624,166204.04943592835,0,2009,1454,2
-435.16983125168446,1.6616016662203967,54.111137470634425,278752.35735400434,122071.07500479228,178520.7946517087,0,2007,1454,2
-392.0419164588495,6.169149110360761,56.92450715949929,279355.1094806124,124654.77811010713,191154.94823467903,0,2010,1452,2
-352.80715512689767,11.816553572361142,60.116498857068734,280232.4362862281,127192.87136699578,204066.58512593445,3,2010,1452,2
-317.6646120571627,18.622115612466335,63.6830622842352,281369.91729464446,129673.04941204337,217218.39412571304,1,2010,1453,2
-286.78579208620573,26.526056156881353,67.60594501587542,282751.56342718145,132084.35879835236,230574.5941620164,3,2010,1452,2
-260.3175037627348,35.39322863741307,71.85000270141093,284360.0401063137,134418.70823658686,244099.78393029832,3,2010,1452,2
-238.38574017107933,45.02427895613673,76.35933700618948,286177.1603174986,136671.62066840223,257757.65375965423,0,2010,1455,2
-221.09951421102238,55.172161767888475,81.0583470868102,288184.6325470979,138842.60529143517,271509.7721997654,0,2010,1455,2
-208.54752562303844,65.56398707606597,85.86699730454023,290364.9688004536,140935.47208685215,285314.94087670307,0,2009,1455,2
-200.78858726969366,75.92713656588991,90.73018186139853,292702.40848320274,142958.44108403497,299129.52700461075,0,2010,1454,2
-197.84598049729445,86.01060191052893,95.64310061635204,295183.4007313278,144923.64071355175,312908.15614745085,0,2010,1453,2
-199.71025251999404,95.59633991779106,100.65632256082954,297796.24622333096,146845.53247997153,326604.3600828712,0,2009,1453,2
-206.34585866774847,104.50538265063575,105.86214392533897,300530.07384494983,148738.36915462706,340171.6736529358,0,2008,1457,2
-217.6958273001331,112.60079684108005,111.37448100140895,303373.63534869306,150613.78431996136,353564.6534295802,0,2009,1455,2
-233.6822857440515,119.78483975126511,117.31083460004034,306314.21634039836,152479.5933492934,366739.41616223456,0,2006,1453,2
-254.20397055497384,125.99036789190126,123.77730773128802,309336.69001527666,154339.83813184546,379654.46507906046,0,2007,1453,2
-279.13324248905633,131.17046973235225,130.8584468503651,312422.7680363829,156195.5054627191,392271.514667125,0,2008,1455,2
-308.31634988860606,135.28913585763334,138.61503106607995,315550.6245195619,158045.62786311333,404555.7037393061,0,2009,1453,2
-341.578186044573,138.31275003439995,147.08815817802557,318694.89400336833,159888.63624228782,416475.5554474669,0,2008,1451,2
-378.7273291596313,140.2034941883559,156.30354960187597,321826.7247873434,161723.3572253519,428002.55233734555,0,2008,1453,2
-419.55881811478207,140.91622813630315,166.2705760918479,324913.70474585984,163549.14373717934,439110.2188779294,0,2008,1453,2
-463.8562710681364,140.3975137693239,176.97648080096198,327919.8398949823,165365.41155319393,449773.35161807126,0,2009,1452,2
-511.3927479669047,138.58458454243657,188.38104614454335,330805.68071945675,167171.1283309545,459967.4751495444,0,2008,1454,2
-561.9301890306834,135.40286615227464,200.4159114087264,333528.6959810109,168964.63061767144,469668.42369349854,0,2006,1454,2
-615.2198608303895,130.76204872541456,212.98875060231603,336044.0443911337,170743.826720448,478852.32583013864,0,2006,1455,2
-671.0030041145482,124.5526680821534,225.98833530731807,338305.46013938455,172506.45636389375,487495.66064265784,0,2006,1455,2
-729.0112278712498,116.64488920889458,239.2871281415812,340266.16317585413,174250.13599228475,495575.07149517484,0,2005,1454,2
-788.9688202157505,106.88964939027657,252.74282266848886,341880.16833101254,175972.26236694393,503067.2543082808,0,2005,1455,2
-850.594369255957,95.1214523829962,266.20038306864853,343103.77986478555,177669.88230636515,509948.7953422384,0,2005,1455,2
-913.5981382259024,81.16180104519249,279.49457367475515,343896.98409548943,179339.56706709458,516195.7465945244,0,2008,1456,2
-977.6764736980368,64.82318301630178,292.4542831084344,344225.0496649454,180977.33510537376,521783.2772717435,0,2008,1453,2
-1042.5049829570871,45.914450497222376,304.90882521033177,344060.21121044434,182578.53379822537,526685.4706685808,0,2008,1454,2
-1107.7328087758165,24.249441016049335,316.69540933526235,343383.02201347327,184137.50295068923,530875.1515621755,0,2008,1454,2
-1172.9795443022329,-0.3397151252369099,327.66694559315346,342183.3432601967,185646.99814908122,534323.8569915799,0,2006,1455,2
-1237.8322663894148,-27.987748469722085,337.6968989984408,340460.8617467675,187097.57671454296,537001.8839009029,0,2009,1453,2
-1301.8442150054238,-58.78487776600468,346.67953670422855,338224.95212805667,188477.23089703842,538878.4579453344,0,2010,1454,2
-1364.539825959052,-92.76983393326384,354.5283531990822,335494.0431148818,189771.39008166108,539922.2717812508,0,2009,1453,2
-1425.4227715402722,-129.9256287927263,361.1751461738845,332294.9715612399,190963.16545774808,540102.2009199999,0,2009,1453,3
-1483.9840309812218,-170.17690940771382,366.57044444355336,328662.6002525214,192033.7476852335,539387.9620253183,0,2008,1454,3
-1539.7131083469094,-213.38720175688,370.68553007209937,324639.59950699954,192962.95576486256,537750.8495728017,0,2007,1456,3
-1592.1092257767993,-259.35335592503225,373.5147665049901,320276.393152098,193729.7218372452,535164.5106375233,0,2004,1459,3
-1640.6893203170487,-307.7972092515506,375.0761769539066,315631.08123396215,194312.33744661644,531605.5790492902,0,1989,1472,3
-1684.9972882645468,-358.35811304948913,375.41018046760814,310768.9331912568,194688.594823379,527054.246650358,0,1988,1470,3
-1724.6143920805146,-410.58942221348326,374.5777269903056,305761.5339789305,194835.971868443,521494.96329984855,0,1990,1467,3
-1759.1698956272012,-463.9612878103325,372.65746149026387,300685.3919101485,194732.04127242137,514917.39046663605,0,1990,1470,3
-1788.355189091093,-517.8690447807681,369.7406058308895,295619.518395872,194355.27348260776,507317.6289760449,0,1978,1475,3
-1811.9376526994647,-571.6393820163069,365.92579116710226,290642.74429921265,193686.0557522174,498699.6044213154,0,1978,1476,3
-1829.7701737605512,-624.5306216518755,361.31801213160156,285831.4818104638,192707.7762531184,489076.30684565206,0,1978,1476,3
-1841.8002615630996,-675.7336509350949,356.0307714544156,281257.4614049821,191408.03168973324,478470.65859900555,0,1956,1501,3
-1848.0786032470066,-724.377895851286,350.18680042420425,276985.6116748024,189779.68066780327,466916.190231972,0,1951,1499,3
-1848.760578091624,-769.5452402008884,343.9139304069322,273072.26881841227,187821.32574784872,454457.4681440463,0,1950,1498,3
-1844.0984299600636,-810.2941903203173,337.33511229633734,269563.0945668343,185537.25611766378,441150.00365602045,0,1953,1498,3
-1834.429460571011,-845.6861659524836,330.5556500692166,266490.9896689231,182937.2478440721,427060.1624773123,0,1951,1498,3
-1820.1652378755753,-874.8115725147525,323.65240277249774,263874.5613116111,180036.5985048208,412265.29157157766,0,1961,1491,3
-1801.7798072750893,-896.8244075515539,316.6690970185938,261716.92391594982,176856.5665323753,396853.49958600826,0,1972,1481,3
-1779.7947035789202,-910.9790862308923,309.620612315235,260004.99458511945,173425.17582669147,380923.4191592304,0,1972,1481,3
-1754.7592714800796,-916.6612157145688,302.50551987339617,258709.80366307343,169778.17622387322,364584.0985853936,0,1982,1475,3
-1727.2258100978097,-913.4216050039292,295.32317544569594,257787.83139274275,165959.94240873813,347954.3038081032,0,1979,1477,3
-1697.7288245230407,-901.0128483649424,288.09304865351675,257183.01875728296,162024.01934350317,331161.8145118711,0,1979,1475,3
-1666.7746272941051,-879.4134067260728,280.87556395203507,256829.50121073244,158032.24945571428,314343.09778430534,0,1990,1467,3
-1634.8336393300613,-848.8346322041231,273.78389757336316,256655.07068080612,154051.43235284032,297642.129438639,0,1988,1470,3
-1602.3324847320528,-809.7188122109912,266.9728201385414,256584.47055106383,150148.40099549305,281208.2232718993,0,1993,1466,3
-1569.6512951376542,-762.7378671571234,260.6056462691717,256542.3269346191,146384.75980561902,265192.73502417834,0,1993,1467,3
-1537.1246197605972,-708.7949499459393,254.81208669919772,256456.37584450113,142811.75780326323,249743.88950278133,0,2009,1453,3
-1505.0414015965712,-649.0222299590399,249.6538405210723,256260.47189286616,139467.07213085223,235001.56998556026,0,2010,1454,3
-1473.6432118317925,-584.7603572040047,245.1083054637418,255896.86937219306,136375.28071635205,221093.25764657086,0,2011,1452,3
-1443.1193018519969,-517.5131411827426,241.0700466592871,255318.32849791058,133551.24470720068,208129.64665633423,0,2010,1455,3
-1413.5991981058676,-448.89732356755337,237.36748497961105,254489.83523935342,131004.17833864846,196200.70678455816,22,2010,1450,3
-1385.147284851827,-380.59973886532447,233.79171986708135,253388.91783451673,128741.12252927161,185373.9045920889,230,2009,1450,3
-1357.763899334089,-314.3290710891874,230.12905949843028,252004.44957874733,126769.68911679118,175693.98218173013,524,2011,1451,3
-1331.396031352436,-251.75518337119,226.18399248588184,250335.1076383759,125099.54446116328,167183.64652659238,906,2010,1455,3
-1305.9586702233962,-194.40721282905383,221.78941806846808,248389.2789518066,123741.84790551596,159844.7256058199,1171,2010,1453,3
-1281.3640236257174,-143.49728483233977,216.81326560876616,246187.65405328735,122707.07062400308,153658.66933027667,1215,2010,1451,3
-1257.5447674690809,-99.73572522874659,211.16907557512005,243768.14991780635,122002.45123430456,148586.22939849488,1356,2009,1452,3
-1234.4599906006295,-63.258405362582124,204.8343577946577,241191.62885894714,121629.06608313211,144567.71882295675,1332,2012,1452,3
-1212.1002476768626,-33.70297114234224,197.87154922601866,238545.99074604767,121577.85839194593,141525.41418255382,1329,2010,1452,3
-1190.5074318224904,-10.370462696992039,190.43736981177517,235945.09779842364,121826.10051551576,139368.18509935378,1371,2010,1452,3
-1169.7894662216443,7.597724794849908,182.76623753541065,233518.56118141566,122336.72745301468,137997.7500274524,1355,2011,1454,3
-1150.108049598036,21.05848045400988,175.11906264088742,231392.87679751232,123060.77032134349,137316.07418636727,1390,2010,1454,3
-1131.6468236146932,30.76125290776496,167.71652024395104,229673.19008659528,123941.22422054202,137231.6943661589,1407,2010,1452,0
-1114.5720599354831,37.330253536259335,160.69674070659738,228434.7374159133,124917.95895799834,137662.44499368756,1427,2013,1453,0
-1098.9936500544677,41.30679757641998,154.11823257973364,227723.94552015958,125934.34968216105,138534.57783726885,1418,2013,1451,0
-1084.9446268456727,43.1975865933187,147.9999088473242,227564.419461166,126943.76517442337,139779.97215616514,1506,2018,1453,0
-1072.388232971114,43.497926507884564,142.36395472844137,227962.55317052352,127912.63173632525,141333.67353527935,1557,2016,1451,0
-1061.24026547213,42.68828416036023,137.24298612083234,228909.589235805,128818.9889445635,143133.44197165183,1658,2025,1454,0
-1051.3932343175154,41.21425109537892,132.64988668141012,230381.1756566469,129648.14311354126,145121.1968910943,1718,2028,1451,0
-1042.7342242160425,39.46219712822288,128.54473874818234,232337.00464298166,130388.69182959566,147245.0160363358,1785,2027,1455,0
-1035.1546467331555,37.73979831093143,124.83135345029271,234722.35698454612,131031.40836371652,149460.77201160154,1885,2031,1453,0
-1028.5548778525454,36.26343366829168,121.38557768404728,237471.93953724066,131570.68932999833,151733.2316265207,2012,2032,1451,0
-1022.8456645915303,35.15422022127772,118.09064225654349,240514.4607052506,132006.3710236119,154036.1784813074,2088,2029,1452,0
-1017.9487315877202,34.44624158049041,114.85741788650516,243777.072977145,132343.7324572524,156350.94622341346,2204,2020,1453,0
-1013.797383178003,34.106407789986,111.62800880615117,247190.28840378625,132591.18216684452,158663.64611675317,2280,2026,1455,0
-1010.3346410060483,34.05794472653658,108.37123043319083,250692.3494328843,132757.20599475008,160962.4569244397,2347,2026,1453,0
-1007.5073787075067,34.201479916937465,105.07578073506201,254231.51487970672,132848.34104220453,163236.0917773306,2400,2027,1452,0
-1005.2583675140436,34.435144635123585,101.74329483977552,257766.57882139436,132868.50803147512,165473.33181548305,2429,2041,1454,0
-1003.5211180149049,34.671569430379215,98.38344142666392,261266.25916843195,132819.26382500777,167663.04314452177,2467,2034,1452,0
-1002.2206501468717,34.84756267366164,95.01322982792732,264707.4720341743,132700.71716085426,169794.46701024074,2508,2036,1455,0
-1001.2784785997039,34.92809628574528,91.660003736255,268072.7101344136,132512.912962071,171857.83519902188,2489,2031,1452,0
-1000.6178798858984,34.906726962278576,88.3652526546822,271347.342480743,132257.18864439693,173845.10416659925,2485,2035,1451,0
-1000.1673956651659,34.80180437184802,85.18568716715384,274517.4951075507,131937.0747278825,175750.38472560956,2474,2047,1452,0
-999.8632845263413,34.6480263296696,82.18827573157178,277568.61548776255,131558.644225415,177569.94762558737,2445,2046,1451,0
-999.651472765684,34.48572087495752,79.43945896508123,280484.8592030094,131130.25538058332,179301.97797944036,2356,2056,1449,0
-999.4886695339889,34.35150372306022,76.99413754547855,283249.2568686132,130661.87695728402,180946.2178004259,2292,2066,1451,0
-999.3427381398553,34.270370391663896,74.88903932362594,285844.48523149785,130164.29452151223,182503.5847238517,2175,2059,1463,0
-999.1923193547866,34.24782371719409,73.13978522850326,288254.1923500093,129648.26992486429,183975.8476016377,2080,2064,1463,0
-999.025512833342,34.264375042492105,71.74037461076355,290464.3736851258,129123.84619447803,185365.3801072524,1995,2062,1466,0
-998.8377686258772,34.276046466638924,70.66568916614933,292464.4435157365,128599.93971386076,186675.00443540607,1919,2064,1464,0
-998.6295270540185,34.221146025219475,69.87681564519261,294248.25008758146,128084.0517441899,187907.93959867244,1874,2052,1463,0
-998.4044649687092,34.03004458668772,69.3269296917956,295814.88393131323,127582.02215663291,189067.7719385477,1765,2044,1466,0
-998.1684421960116,33.63575771392971,68.96608848025593,297168.8574591946,127097.87622029523,190158.34410852837,1679,2044,1463,0
-997.928397802507,32.985145461408955,68.74502199143328,298319.68902928865,126633.75994479412,191183.56506620636,1609,2034,1468,0
-997.6912887550171,32.04765077099382,68.61777257108483,299281.12624000595,126190.00416789301,192147.19435666697,1487,2045,1467,0
-997.4638594575446,30.817865220739872,68.54344740148818,300070.0177447807,125765.40689825904,193052.65490853082,1415,2046,1468,0
-997.2531603756527,29.312798576963434,68.48808420901007,300704.8099322259,125357.71177660854,193902.90963639747,1335,2035,1468,0
-997.0669842303871,27.567347707336054,68.42637101932051,301204.05793011124,124964.08699066927,194700.3802989542,1259,2033,1470,0
-996.9137496464401,25.629487858417807,68.34212928536006,301585.2917460627,124581.44411947604,195446.9033413682,1163,2032,1475,0
-996.8019912464223,23.554443031759277,68.22729801044512,301864.13738311833,124206.61928746714,196143.75828695064,1074,2024,1478,0
-996.7398159019259,21.398414851540952,68.08018552152674,302053.7035670957,123836.48078025608,196791.7434079322,1020,2045,1479,0
-996.7342965967487,19.21275572113135,67.90383421158278,302164.38964568573,123467.99376259919,197391.27635754293,967,2045,1482,0
-996.7905077083046,17.03809290856178,67.70479331104575,302204.0523516795,123098.27625766578,197942.55145698797,920,2043,1487,0
-996.9105483674672,14.899825640559836,67.49228578064422,302178.3408378631,122724.66787582624,198445.70854940818,872,2047,1484,0
-997.0933427700846,12.807436876108191,67.27740655272277,302091.13036399736,122344.79898408712,198900.96064160607,828,2047,1483,0
-997.3352036245439,10.757119059618654,67.07210925848254,301945.082898575,121956.63604502117,199308.70162940052,781,2047,1486,0
-997.6304627615823,8.735167938602524,66.88830047032911,301742.209764693,121558.49663969401,199669.57297770696,736,2066,1487,0
-997.9718884935899,6.721060519952886,66.73721303186012,301484.29581483366,121149.03111445131,199984.46159211072,665,2056,1486,0
-998.3509846044913,4.691036400949032,66.629163091303,301173.222410722,120727.18292786287,200254.4601381723,638,2065,1495,0
-998.7581992619652,2.621905352380298,66.57390265648995,300811.20006353257,120292.18162101801,200480.80698617638,606,2062,1508,0
-999.183300009766,0.4934793495366258,66.58128428888027,300400.85311564873,119843.5859347322,200664.8055403221,602,2047,1511,0
-999.6162247557704,-1.7107143140433667,66.66171366866337,299945.16508483683,119381.32053851352,200807.75102343867,580,2081,1501,0
-1000.0481297213481,-4.0036581140198075,66.82605318751104,299447.37174836645,118905.66761168791,200910.89255938475,536,2042,1514,0
-1000.4723017105415,-6.395669346803083,67.08505467472192,298910.8983712108,118417.20674729065,200975.41691914984,457,2075,1525,0
-1000.8851373064098,-8.895768726495383,67.44914900852248,298339.38515936007,117916.71388817359,201002.4257923086,424,2086,1522,1
-1001.2871100033248,-11.512773540370036,67.92900534089236,297736.76925020834,117405.08384306148,200992.89676007978,412,2089,1523,1
-1001.6832841598633,-14.255149422054098,68.53596068712073,297107.31018491695,116883.3017677763,200947.62471264068,350,2094,1529,1
-1002.0834961022734,-17.130033878499706,69.28176866609132,296455.5083495116,116352.40506741703,200867.1540300588,329,2081,1539,1
-1002.5026162831974,-20.14238036615684,70.17813354822489,295786.02375821094,115813.42213856197,200751.73202094468,308,2097,1531,1
-1002.961010847097,-23.294221479175576,71.23633505317642,295103.6633561536,115267.30884774573,200601.2771749767,269,2096,1540,1
-1003.4850922686628,-26.583809294643974,72.46699497996808,294413.38524041144,114714.88467471491,200415.31486871463,234,2126,1535,1
-1004.1077002825787,-30.004779792759233,73.88010376489898,293720.29251654237,114156.80626239827,200192.87282452738,194,2150,1638,1
-1004.8681065956041,-33.54524810414639,75.48535823874819,293029.59390789055,113593.58824143044,199932.34158963725,177,2141,1578,1
-1005.8116363462609,-37.18655490935171,77.29268792072246,292346.4876041632,113025.61331269237,199631.29135587378,156,2154,1745,1
-1006.9889113281223,-40.901921030754,79.31259286903057,291676.0066317041,112453.11625510202,199286.29749447826,110,2172,1743,1
-1008.4545179258387,-44.65589792502063,81.55590269092474,291022.83195809234,111876.16005217138,198892.82289708673,79,2153,1739,1
-1010.2651292256206,-48.4051955284562,84.03288755201372,290391.01417177793,111294.60621819113,198445.14286178644,52,2151,1757,1
-1012.4777659528833,-52.10047995073674,86.75210719446785,289783.68706425594,110708.11143006067,197936.33155032148,94,2185,1747,1
-1015.1487465541032,-55.68881541258654,89.71961170712946,289202.872776905,110116.16874179001,197358.3494650958,48,2207,1749,1
-1018.3332072225397,-59.116613471887405,92.93867972299907,288649.3422784449,109518.15944684703,196702.21727492273,41,2172,1785,1
-1022.0848050092088,-62.33192247144726,96.40986519071663,288122.54996571015,108913.39486061546,195958.24510806138,29,2157,1784,1
-1026.4553646553393,-65.28570698244692,100.1313252379865,287620.7106123538,108301.12523181581,195116.3320632252,0,2187,1788,1
-1031.494645114246,-67.9337347203828,104.09929509935284,287140.9712087378,107680.49248814287,194166.33118124786,0,2159,1789,1
-1037.2502548490131,-70.23925527068737,108.3079741461643,286679.58715667046,107050.47521651525,193098.3618233796,1,2141,1810,1
-1043.767317022693,-72.174645740211,112.74850254016035,286232.12823143776,106409.87317782581,191902.93711996116,0,2169,1799,1
-1051.0878074823215,-73.72150892227033,117.40800714168353,285793.8027383488,105757.31705132642,190570.94211424608,0,2196,1792,1
-1059.2497165909444,-74.869698439908,122.26973611352909,285359.8635744884,105091.3087920595,189093.649970704,0,2152,1836,1
-1068.2859858441288,-75.61494022785568,127.31419125174111,284925.98821865424,104410.2940817975,187462.88500301403,0,2151,1864,1
-1078.2234388328816,-75.955922961133,132.5204850421116,284488.5911742128,103712.71872428444,185671.27131898756,0,2180,1851,1
-1089.0825831787076,-75.89310773764853,137.8671901674854,284045.02876512177,102997.05828046861,183712.46832131522,0,2205,1893,1
-1100.8786927253138,-75.42908338719576,143.332444876071,283593.6659055286,102261.858008436,181581.33351880408,0,2169,1890,1
-1113.6232015868231,-74.56835206359236,148.8936936358729,283133.87030409457,101505.7958537897,179274.02476565578,0,2189,1914,1
-1127.3254869558673,-73.31691943511291,154.52688036241264,282666.01456399437,100727.73440314671,176788.05094467747,0,2244,1953,1
-1141.9964303192282,-71.68452667783802,160.2031713544185,282191.4935697629,99926.71217020736,174122.23441392012,0,2163,1966,1
-1157.6492966926878,-69.68805013439999,165.88328037813434,281712.7966791939,99101.80859304091,171276.70032357768,0,2142,2010,1
-1174.2904592906978,-67.34903781168057,171.51426230399179,281233.80029683356,98251.86775492773,168252.9757504016,1,2159,2029,1
-1191.9058983933492,-64.68457612347026,177.0322647735252,280760.34843307006,97375.37651506152,165054.02454945963,0,2142,2071,1
-1210.4568484865674,-61.70003777811456,182.36924083520498,280300.7356431133,96470.82153877517,161684.1883409786,0,2061,1936,1
-1229.8849987661906,-58.38876835854191,187.46018156264634,279865.421003873,95537.32329675191,158149.11079781884,0,2030,1947,1
-1250.1180843954644,-54.73501555985132,192.24769625908624,279465.8814462545,94575.13003153761,154455.56345193155,0,2009,1974,1
-1271.0705656163555,-50.71631356686302,196.6815841156834,279113.42183398333,93585.77527329476,150611.27746942698,0,1903,2035,1
-1292.6412575797233,-46.306932176279034,200.71436016665163,278818.6221208557,92571.84845803482,146624.90556224232,0,1919,2031,1
-1314.7113566405665,-41.483265286052685,204.29511634001088,278591.22640567337,91536.5093131793,142505.998993358,0,1781,2128,1
-1337.1429251654745,-36.22829878637521,207.36387041381855,278440.0813347895,90483.10445030496,138265.0540248622,0,1713,2182,1
-1359.7777935251695,-30.534359187206313,209.84862330562538,278373.06719133793,89415.12239228637,133913.6576333842,0,1643,2216,1
-1382.4376318543648,-24.405766205643786,211.66547254295836,278397.04368006735,88336.40056324213,129464.55196262545,0,1515,2295,1
-1404.9239001000287,-17.861537933896976,212.72041842435104,278517.7918575434,87251.41385374546,124931.69936468727,0,1496,2313,1
-1427.0168845436133,-10.937464616361385,212.91257273943765,278739.98120089807,86165.5427132008,120330.43385142057,0,1403,2334,1
-1448.4750950665255,-3.687627064350076,212.13945920814336,279067.20321917394,85085.29142768474,115677.54013312327,0,1293,2368,1
-1469.0356191683438,3.814688282489332,210.3040786094192,279502.0349930334,84018.49145961275,110991.3386949615,0,1209,2417,1
-1488.4155379761223,11.477358699206487,207.32351882019492,280045.9723159089,82974.50037579371,106291.87126222695,4,1131,2475,1
-1506.3150896154705,19.19133555417484,203.13888864658884,280699.0786597689,81964.33985713862,101601.05084463657,0,1020,2471,1
-1522.423456835635,26.83443654840715,197.72505259410607,281459.3611690736,81000.68479709947,96942.85988532133,0,957,2506,1
-1536.4262116487148,34.27706954219149,191.0985716627259,282321.9506065042,80097.62053713978,92343.68148163249,0,882,2499,1
-1548.010372835743,41.38723605075389,183.32125754820117,283278.18299771927,79270.18124031075,87832.60997228889,0,855,2514,1
-1556.8655232545868,48.03148139846802,174.49578866522518,284314.75443075295,78533.73483145605,83441.74767004499,0,803,2545,1
-1562.683798283398,54.07133775790908,164.75431233881102,285413.09785613185,77903.32779308115,79206.55038100487,0,811,2547,1
-1565.161475980735,59.35723021089956,154.2477101359809,286549.10942726966,77393.33031632322,75166.13605273866,15,849,2510,1
-1564.0060501400833,63.723986070171584,143.1418983505548,287693.40851470747,77017.69819230493,71363.38417844952,13,867,2482,1
-1558.951447690122,66.99348219545918,131.6198331426058,288812.1477881393,76790.70234834953,67844.68262273904,7,916,2425,1
-1549.776056350111,68.98659399398876,119.88431157165091,289868.0853448478,76727.57003594938,64659.44394788924,9,1058,2322,1
-1536.3176200546552,69.54264890788306,108.1558527845535,290821.9936929785,76844.46175246473,61859.29727011955,13,1182,2199,1
-1518.4856370663174,68.54114604448186,96.66166686847853,291634.70858090674,77157.6342329608,59496.6785385702,15,1336,2074,1
-1496.2716288877648,65.91679110554283,85.61905232330761,292269.30931695836,77682.16402592325,57623.268908639,0,1529,1892,1
-1469.7536702783068,61.665929645700636,75.21783407275858,292693.0550391149,78430.59846851924,56288.63910149968,4,1577,1843,1
-1439.0914198512628,55.85211647679575,65.60288172813289,292879.497890782,79411.77042323812,55538.77323082878,0,1661,1773,1
-1404.512585565069,48.61423518690258,56.86178329693425,292810.7629676816,80630.258691221,55414.689610618865,16,1685,1757,1
-1366.2931351510197,40.17233383345012,49.02551640659307,292480.1639568722,82086.82795670134,55951.716065473134,13,1718,1723,1
-1324.7336011639286,30.826139555786526,42.08403938068219,291895.7064842068,83779.38571804512,57179.34239783949,16,1784,1656,1
-1280.1405810512708,20.94512075441035,36.00991274788999,291083.4794266687,85703.43334389896,59121.26150947508,12,1781,1662,1
-1232.8190460987912,10.947449935391035,30.78055286231616,290088.89014752506,87851.23968432544,61795.31475998078,13,1853,1595,1
-1183.0708293062626,1.266612243943491,26.393659077179457,288974.12044349173,90209.90225768992,65213.2350570856,11,1869,1586,1
-1131.1973795722793,-7.6844660958476485,22.871011586765615,287811.74734953494,92759.40370150939,69380.20685735854,10,1872,1569,2
-1077.5082701774284,-15.545660086958186,20.24588750188367,286677.2206976891,95471.8519385964,74294.3214309325,0,1885,1557,2
-1022.333575400776,-22.041704238911663,18.537291425693404,285642.3197844737,98312.84669564539,79946.29857425003,2,1922,1540,2
-966.0359377077157,-27.0067373029977,17.725575021411842,284769.2845859578,101245.16911980085,86319.83105949532,0,1956,1493,2
-909.0166575896214,-30.38864500773223,17.744344268970725,284106.44946958846,104233.25545143538,93392.22650367208,1,2008,1454,2
-851.7130234744988,-32.23382490145354,18.491497611072923,283686.60935637384,107247.0640546064,101135.05446138149,4,2010,1451,2
-794.5916958187718,-32.66273454316153,19.850853490541837,283527.2888876293,110265.27603165184,109514.94576021447,3,2012,1451,2
-738.1406629619908,-31.84003112610539,21.715136151342392,283632.1864850386,113276.99168051183,118494.22183766688,0,2010,1451,2
-682.856844910483,-29.937365534660547,24.005884129021005,283993.84539505036,116280.5681058725,128031.35854925089,0,2011,1452,2
-629.2323477241222,-27.09854556440106,26.683996819500777,284596.79551065067,119279.89890162407,138081.96648335204,0,2008,1452,2
-577.7407897006301,-23.419672958118902,29.745071129476006,285420.68318366085,122280.16085398597,148600.02879781034,0,2010,1451,2
-528.8195390367787,-18.943596374758794,33.20467783799473,286443.66542992793,125284.65412154235,159538.78768429795,0,2006,1454,2
-482.8535601572873,-13.665380391830208,37.08532092368697,287645.2664023685,128292.88619835446,170851.38716436495,0,2009,1452,2
-440.16963920521624,-7.551900037587164,41.40937526882711,289007.5837024452,131300.0195378116,182491.6315074909,0,2010,1452,2
-401.04029103404963,-0.5741541364177082,46.19379503818686,290515.0596246562,134297.79755770526,194415.00462636547,0,2006,1455,2
-365.6929799362794,7.262023397233451,51.44491508393868,292153.6631792299,137276.07966319768,206579.23816001113,2,2006,1453,2
-334.31968157942003,15.899703280743907,57.15654188623695,293910.211400472,140224.36796636318,218943.89421821534,6,2010,1453,2
-307.08348326901154,25.22892071824333,63.31245741715031,295772.1917203888,143133.43570690247,231469.5294836312,3,2010,1451,2
-284.12251539546605,35.09377977444722,69.89019095154103,297727.99057603517,145996.61265775296,244116.74925999524,3,2010,1451,2
-265.55105822426464,45.3067642146106,76.86362539119366,299767.45450447954,148810.16778036338,256845.4116055372,2,2010,1453,2
-251.45824949470503,55.67021973362794,84.20554040160863,301882.761520113,151573.01261407652,269614.561502121,4,2010,1451,2
-241.90659079248726,65.99812416243518,91.89210579069848,304069.16020731,154286.13271166198,282382.70448052604,3,2009,1450,2
-236.9301534386731,76.12960434515568,99.911258261772,306325.05313853506,156951.95147890976,295108.07234067685,0,2009,1454,2
-236.53225650132487,85.93398372467705,108.27401524388998,308651.3696406719,159573.69161912645,307749.3604999935,0,2009,1453,2
-240.6848054112202,95.30987122055333,117.02181928246736,311050.4572029957,162154.67678190913,320266.52625022206,0,2008,1453,2
-249.32965200086565,104.17888175755027,126.22313582809709,313524.6472488155,164697.52245074723,332621.2295601778,0,2008,1455,2
-262.3800674432588,112.47514876264839,135.9598180189701,316074.6624244912,167203.27567402157,344777.4656572554,0,2009,1454,2
-279.7211756856013,120.13456904670838,146.31076234837698,318698.3120549447,169670.7311182647,356702.1035454021,0,2009,1452,2
-301.2103164128501,127.08842736549613,157.34009539626933,321389.85808084696,172096.28196740802,368364.9049518836,0,2010,1452,2
-326.6789552069838,133.26220492921988,169.09140215219375,324139.92222395283,174474.4441668887,379738.4787392299,0,2009,1454,2
-355.9355955975317,138.57741795090124,181.58655036202077,326935.52213691385,176798.65270594734,390798.0453449582,0,2008,1453,2
-388.76964846694915,142.9550695485326,194.827294391923,329760.0469422877,179061.91846854394,401520.83835293655,0,2009,1452,2
-424.9570758827968,146.3200219111334,208.7972975744829,332593.24288512557,181257.29967774724,411885.6602473626,0,2008,1452,2
-464.26498896021656,148.6041632002373,223.462550949803,335411.2020692721,183378.07925555322,421872.55512997834,0,2009,1454,2
-506.45350689105976,149.7457342402845,238.77048637846897,338186.41599522263,185417.62961885348,431462.4647245413,0,2008,1453,2
-551.277229454714,149.68466901086822,254.64958531525892,340888.0361016269,187369.2428276548,440637.19995739456,0,2009,1451,2
-598.4862269737358,148.35633223526258,271.00973551837933,343482.17406256055,189226.08030016575,449379.4431390619,0,2008,1451,2
-647.8265064608544,145.6849394032942,287.7429761284533,345932.16568208433,190981.30910836285,457672.4548043716,0,2008,1454,2
-699.0423770085869,141.5763658682251,304.7246101771891,348199.02020299627,192628.491889038,465499.8077858229,0,2007,1452,2
-751.8790014384699,135.9123701280571,321.813971225557,350242.0267962255,194162.02098105554,472845.1082905606,0,2008,1453,2
-806.0829396248799,128.549331169232,338.85568738955544,352019.623763606,195577.38307967066,479691.55992021883,0,2010,1453,2
-861.4023846689454,119.32155210982911,355.68305245981037,353490.86352433683,196871.28953111643,486021.6464242695,0,2009,1455,2
-917.5863027785556,108.04731309301168,372.122332169906,354617.14614753035,198041.63827917867,491816.8756918208,0,2008,1453,2
-974.3810314963139,94.53776182395363,387.99784004966875,355363.89150272915,199087.18798033756,497057.43206192076,0,2008,1453,2
-1031.5260504461537,78.60921521742935,403.13935908232463,355702.33548676956,200006.9860191596,501721.9147723509,0,2010,1454,2
-1088.7492069710906,60.09588574193737,417.38969692213084,355611.0920660749,200799.75879101685,505787.1290669826,0,2010,1453,2
-1145.7620554086263,38.85997795659692,430.6098265586731,355076.90330455196,201463.443028839,509227.9022509283,0,2008,1453,2
-1202.2578186885455,14.799390481602584,442.68223459240033,354094.66408952686,201994.88638281525,512017.13188448723,0,2008,1455,2
-1257.9110703643955,-12.146506123490694,453.5122521818583,352667.0575245237,202389.70041717484,514125.9749796401,0,2009,1452,2
-1312.3787878149199,-41.992820286561646,463.02701884451784,350803.89585989184,202642.2643856142,515524.0511545118,0,2009,1453,2
-1365.3048677031322,-74.70565528684229,471.17349178783957,348521.2076902909,202745.82824642074,516179.7912348344,0,2011,1451,3
-1416.325646468946,-110.19820991399286,477.91656080618606,345840.43158388487,202692.62167561852,516060.8742493656,0,2004,1458,3
-1465.0754573249476,-148.3274756542477,483.2377756402921,342787.94686130976,202473.95688395077,515134.678219557,0,1997,1469,3
-1511.195527415396,-188.89291486302943,487.13526911357843,339394.7437356976,202080.3938949262,513368.87932052714,0,1996,1464,3
-1554.3427582417314,-231.63557098661994,489.62461225790247,335696.18102560454,201501.9704082711,510732.1759206013,0,1992,1468,3
-1594.1941545255333,-276.23710500028733,490.73941026006713,331731.72732843796,200728.48350668597,507195.09797168564,0,1989,1475,3
-1630.4502142722126,-322.32155804748055,490.53064516367385,327544.40963774215,199749.87002349974,502731.04491984117,0,1987,1473,3
-1662.8391026044521,-369.45870341451234,489.06477158593015,323180.1273742987,198556.66543932608,497317.5456594771,0,1962,1496,3
-1691.1219542061765,-417.1649714723783,486.42052795833604,318686.83555348084,197140.50479148663,490937.6088331792,0,1955,1502,3
-1715.1011023954097,-464.90137027128003,482.68378002918394,314113.2776276807,195494.69147970245,483581.11874638405,0,1945,1504,3
-1734.6290494163186,-512.0701522383062,477.9416655032227,309507.7557310135,193614.78576395687,475246.2187514068,0,1945,1509,3
-1749.6168538165525,-558.0154835411986,472.27890034054025,304917.5640651785,191499.1023270605,465940.5001634032,0,1947,1504,3
-1760.0431972445308,-602.0321933607544,465.77725927397614,300388.8647582175,189149.0526833846,455681.872342093,0,1948,1505,3
-1765.9600789824456,-643.377052975643,458.5167264552447,295966.71051288187,186569.27653107696,444499.30086162174,0,1944,1509,3
-1767.489265110547,-681.2782497247939,450.57434931270996,291694.8435785818,183767.38741424173,432433.3955824024,0,1942,1507,3
-1764.8101107518294,-714.9459182821548,442.0177664500507,287614.7928598566,180753.29542192604,419536.60499929194,0,1946,1503,3
-1758.1472717692996,-743.584268283464,432.89595076560994,283764.5330848718,177538.66906815988,405873.3991386249,0,1952,1502,3
-1747.7671446489503,-766.4105232370405,423.2328305459431,280176.86384794384,174137.29524016552,391520.53966055834,0,1947,1507,3
-1733.981875676112,-782.6881486578872,413.028571409765,276877.2018529158,170566.4743072127,376566.91823588696,0,1950,1503,3
-1717.1485119727672,-791.7646536473864,402.26977225355915,273881.41446483386,166848.90865963214,361113.31595628243,0,1952,1498,3
-1697.650549774394,-793.1068904478379,390.94669983785144,271194.5519469559,163014.5182322088,345272.3250273974,0,1950,1501,3
-1675.8700386839043,-786.3449120577166,379.0746445894499,268810.5039163679,159101.94790592315,329168.02065615414,0,1958,1496,3
-1652.1711943239875,-771.320360708601,366.71493941894096,266712.5145665464,155159.3141769973,312935.85856033384,0,1977,1477,3
-1626.8954928581552,-748.1209866755435,353.9878713453252,264874.5026607942,151242.8262323115,296722.29264132166,0,1978,1481,3
-1600.3571788505412,-717.0991187257733,341.0646061330142,263262.744868132,147412.41098582535,280682.27916049934,0,1988,1469,3
-1572.8404793150166,-678.8810402578973,328.1366953656368,261837.50682812487,143726.09466714336,264975.1320779827,0,1989,1468,3
-1544.6009603819286,-634.3681317760328,315.38044244458115,260554.9878689921,140235.4101652802,249759.4369544693,15,1990,1468,3
-1515.8682746923914,-584.7279318428341,302.9287279877141,259369.9421260883,136982.4514269638,235186.37390946844,78,1989,1466,3
-1486.847807980488,-531.3743353499364,290.8546107811997,258238.1382628542,133999.02919743012,221393.3924536556,381,2011,1455,3
-1457.718444449851,-475.9211250035559,279.16839116291834,257117.89554688157,131308.0159282981,208499.9445741406,729,2009,1453,3
-1428.6278664153938,-420.0904250198589,267.82223105465,255971.02774482148,128925.66262175838,196603.97943695835,1139,2010,1454,3
-1399.6932355652239,-365.5911902047817,256.7131843596728,254763.78159628125,126863.2999144507,185779.3036304969,1430,2010,1451,3
-1371.0099685499051,-313.9686597449584,245.6806046585412,253469.14889391058,125127.41866961075,176074.4401453603,1492,2010,1455,3
-1342.6603208484103,-266.41256455732866,234.5051147811652,252072.23262829965,123718.35865452707,167511.8132786194,1680,2006,1455,3
-1314.7158804924627,-223.60279008230987,222.92891916486758,250577.6406960688,122629.0849255059,160087.30253170663,1614,2005,1459,3
-1287.2439541379372,-185.71147085276903,210.72264531746148,249015.14094170992,121845.59982777723,153772.12258706815,1688,2010,1452,3
-1260.3322075141382,-152.56220100199775,197.79181439450693,247439.80731203425,121349.08646752265,148517.9960114155,1556,2010,1452,3
-1234.1236446393639,-123.82294205894344,184.25493055385576,245925.21485426172,121118.09565187483,144263.90846330803,1508,2010,1453,3
-1208.8321699021938,-99.1294953742446,170.4218596001404,244550.74243620853,121128.84779858762,140942.1117981414,1380,2010,1453,3
-1184.7224216535246,-78.13527295076494,156.68430829757818,243387.6260181942,121353.76497058588,138482.33906391344,1349,2008,1454,3
-1162.0689212312973,-60.519702950661184,143.40516688336757,242491.59063494153,121760.40556950426,136813.55105772836,1325,2013,1452,3
-1141.1133613172738,-45.97529041715571,130.87080845436654,241903.9194190653,122312.34783409354,135863.57092626023,1298,2011,1453,3
-1122.0266329273834,-34.1855322312112,119.2991772926225,241655.16488204876,122971.8685366354,135558.27702738278,1309,2017,1452,0
-1104.8857712926056,-24.802978439765138,108.8661728015071,241767.3917067062,123703.29167213349,135821.33737343503,1369,2015,1451,0
-1089.6721722763757,-17.437831771400944,99.71877903252928,242254.38156817912,124475.14647862264,136574.67842199016,1482,2033,1455,0
-1076.2842622284288,-11.666331340562575,91.95828697768616,243120.1066124459,125259.96844706117,137740.09672423307,1572,2034,1454,0
-1064.5577695632956,-7.0587086138538755,85.60100993779822,244356.4033234463,126032.6075315564,139242.09792251285,1648,2030,1454,0
-1054.2899227317025,-3.2139113638210306,80.54656931365211,245941.2719601302,126768.99063376982,141010.96508836577,1712,2039,1456,0
-1045.2682229995564,0.20964644549973038,76.58514413415143,247839.03438366385,127447.07523114521,142985.298198074,1775,2066,1449,0
-1037.3023329994194,3.4699572559460297,73.44931435922472,250002.32478164637,128050.31150409799,145114.06449497497,1847,2056,1451,0
-1030.2456554492976,6.729962446233978,70.8802417018253,252374.76387443938,128571.459119525,147357.49982085536,1894,2064,1453,0
-1023.99752369012,10.063208922705265,68.67165044566974,254894.29527027183,129013.51868662029,149685.8409225673,1947,2059,1451,0
-1018.4942015114746,13.469328300959724,66.68231459811334,257498.13908359132,129386.58453899315,152076.21996941214,2018,2061,1451,0
-1013.6990364640172,16.888571198826618,64.82717492367901,260128.2269276917,129702.66097004825,154509.4714814886,2085,2065,1453,0
-1009.5901079424901,20.215850333977123,63.058456172899966,262735.32140034286,129971.2052241079,156968.20381377806,2147,2086,1452,0
-1006.1427686735284,23.32058240276416,61.3451584749993,265281.8081762777,130196.70335094984,159436.07439149058,2191,2089,1453,0
-1003.3157478098649,26.068587270264242,59.65883387989141,267743.101580649,130378.66187087016,161897.72120714036,2223,2059,1455,0
-1001.0488280534007,28.340768693374464,57.97178763411422,270107.13597421546,130513.26062078941,164338.89910365536,2234,2066,1454,0
-999.2693614826479,30.05053110048655,56.266237864758395,272371.9693694479,130595.38284671877,166746.6181947204,2194,2072,1452,0
-997.9010898551059,31.157733767116813,54.54645974260584,274542.14172761753,130620.6049617703,169109.39873473876,2169,2068,1452,0
-996.8712677862288,31.673483029302325,52.84489353690072,276625.0662472188,130586.73735935391,171417.56062542988,2158,2080,1456,0
-996.1150467732546,31.654338169663998,51.216699390270584,278628.2064327151,130494.42601487618,173663.33659211994,2088,2069,1456,0
-995.5774698608566,31.188031036773957,49.72506846550058,280556.8752958721,130347.02095087645,175840.82259082556,2082,2078,1451,0
-995.213398535216,30.376686359701804,48.42654429080079,282412.8435131496,130150.12776214127,177945.79941893066,1977,2067,1455,0
-994.9860128329983,29.322064085492233,47.3621792389702,284194.22109640547,129910.93903156655,179975.47362887414,1881,2075,1455,0
-994.8652332327026,28.11262940920862,46.55282816587992,285896.43671511166,129637.34544478079,181928.24458392386,1814,2088,1456,0
-994.8271299873802,26.81441141714798,45.99684394664171,287513.54461988044,129337.11515557024,183803.45637682924,1770,2099,1455,0
-994.8540720446946,25.468376786588138,45.67082667093816,289039.4502321098,129017.38883191344,185601.04078715216,1664,2093,1465,0
-994.9346567725381,24.093006103934595,45.53349370700004,290469.19636393397,128684.37962545252,187321.10836577197,1566,2108,1459,0
-995.0630628149471,22.68935949909959,45.53139004324907,291800.0769837535,128343.17886589885,188963.62007940968,1428,2105,1463,0
-995.2378152026598,21.247877401662844,45.60579115695461,293032.2104734604,127997.66050747492,190528.2454208536,1369,2112,1457,0
-995.4598168362922,19.7570359498239,45.700568147691754,294168.6635549429,127650.42046024911,192014.4046522644,1324,2117,1457,0
-995.7300752651311,18.211461831337914,45.768643917853254,295215.2165333691,127302.75026420223,193421.33548280646,1218,2116,1455,0
-996.0479280545537,16.616924390913802,45.77519088530456,296179.6497565052,126954.74039307736,194748.10256767354,1095,2116,1459,0
-996.4101683377957,14.99263401661752,45.698584023221734,297070.5768361844,126605.56042551162,195993.6277580772,1035,2115,1462,0
-996.8112983731129,13.371407593406833,45.53029467470358,297896.2009626105,126253.82651263801,197156.7356498322,963,2105,1458,0
-997.2450054777645,11.79651880159034,45.27366284865785,298663.2840162149,125897.9405601421,198236.19172401153,924,2111,1461,0
-997.706232151376,10.315106081783512,44.94110817164806,299376.2846868877,125536.36273549247,199230.79050486683,881,2114,1474,0
-998.1925027808883,8.970981215689854,44.550287799515914,300036.7542211034,125167.78715717302,200139.4583394038,777,2109,1478,0
-998.7034770398637,7.798770366395793,44.1204440665734,300643.25006767205,124791.20938974542,200961.3290897597,695,2126,1487,0
-999.2388778214555,6.818602353083227,43.67004963414429,301191.7820929575,124405.94812129771,201695.8368039281,675,2124,1488,0
-999.7963067740751,6.032140555130326,43.21629515166717,301676.4911068043,124011.68751703633,202342.79627561284,634,2121,1499,0
-1000.3706613180265,5.422391062636181,42.775531961178096,302090.38569551613,123608.52536977801,202902.43503148056,617,2126,1496,0
-1000.9550600075873,4.957326899770894,42.363554962808934,302426.2012980495,123196.96034695959,203375.4180151945,576,2126,1500,0
-1001.5418715572353,4.594761195427484,41.99546774831285,302677.210528251,122777.80356168887,203762.8628284188,563,2124,1511,0
-1002.1232866257398,4.286788829189045,41.68479194926113,302837.7742098219,122352.03754405284,204066.31771301135,556,2140,1523,0
-1002.691741841287,3.9840460861481866,41.442031858258154,302903.7277491044,121920.65548072086,204287.7132693897,519,2167,1684,0
-1003.2402244697344,3.6392760176436845,41.27396338192955,302872.6508546639,121484.57541937091,204429.2981606417,463,2180,1678,0
-1003.7621781783943,3.2091520964665174,41.1846893676701,302743.9546637898,121044.70208852453,204493.5628671223,408,2198,1684,1
-1004.2509444706421,2.654744940282536,41.178299091150436,302518.82214108086,120602.08998321784,204483.16554335298,390,2208,1681,1
-1004.6993303003522,1.9414579640780927,41.26160457932898,302200.08390612726,120158.10047312852,204400.8814605643,320,2232,1689,1
-1005.1003207797768,1.0387348295352692,41.445198852891465,301792.04896981013,119714.440249836,204249.58363722876,288,2250,1692,1
-1005.4488848957445,-0.08019950654081255,41.74241950680093,301300.2939946743,119273.02947688285,204032.23459994598,299,2261,1695,1
-1005.7435635798807,-1.438316599014267,42.16728646155108,300731.4951888393,118835.78244022059,203751.87275595684,280,2282,1700,1
-1005.9871582838957,-3.0545022184082296,42.73284369902561,300093.33540653356,118404.4106902053,203411.57850000387,245,2265,1710,1
-1006.1868415959033,-4.943049224009374,43.45057152664535,299394.3915778528,117980.2984353247,203014.40254024483,189,2318,1699,1
-1006.3539034839794,-7.113001939398324,44.33062566586835,298643.951863102,117564.49102736684,202563.29604693942,137,2323,1693,1
-1006.5029843965726,-9.567777435358519,45.382124212192295,297851.7166696504,117157.77209193085,202061.10428281312,179,2355,1684,1
-1006.6507928836137,-12.305356345861238,46.61279750408354,297027.3590964013,116760.73234826831,201510.61794288963,87,2358,1702,1
-1006.8152016943318,-15.318895203553168,48.02822657075433,296180.14448283374,116373.78896445577,200914.64925831536,91,2333,1730,1
-1007.0159371214553,-18.59768033741545,49.631552151769846,295318.77193718037,115997.17122350495,200276.08773182903,67,2340,1738,1
-1007.2763757438851,-22.128130173875956,51.42384054755734,294451.33067804395,115630.88881213272,199597.86391663138,87,2347,1727,1
-1007.6246234660628,-25.894018111163682,53.404610255742845,293585.2791399997,115274.71270098665,198882.81174777265,44,2362,1717,1
-1008.0931354252122,-29.875490455943734,55.57255927066125,292727.43831193587,114928.18640813012,198133.4374881078,15,2352,1737,1
-1008.7175535434357,-34.04727123721054,57.9265466208133,291883.9496907216,114590.65338252671,197351.59750450382,13,2364,1748,1
-1009.535692014109,-38.37687497265708,60.46626604797082,291060.20368978655,114261.29169975918,196538.21392167296,15,2341,1761,1
-1010.5871317551805,-42.82399769527249,63.192437964201524,290260.75806571136,113939.14003494117,195693.11821822307,16,2367,1759,1
-1011.9132417371065,-47.34189650666658,66.10670715520958,289489.2088835932,113623.09189914804,194814.95276895896,0,2343,1775,1
-1013.5571903087432,-51.87996289945746,69.21115237495954,288748.06457339023,113311.87570933354,193901.12265555683,2,2355,1803,1
-1015.5636832985567,-56.38600019852508,72.50743430656065,288038.7087761796,113004.05115958379,192947.834361542,5,2337,1809,1
-1017.9785669338315,-60.807867645521405,75.99586267043084,287361.4411387229,112698.01981028897,191950.1818214295,0,2355,1811,1
-1020.8487412155008,-65.09498407675632,79.67456964729189,286715.5697171372,112392.02981362579,190902.2534376018,0,2312,1818,1
-1024.2224944241455,-69.19980930092905,83.53874947603252,286099.54179595644,112084.16480894289,189797.26137208007,0,2370,1816,1
-1028.149793504439,-73.07891223096661,87.57996470796084,285511.0950231716,111772.33188979096,188627.68476684173,0,2360,1843,1
-1032.6821986565,-76.69374293765284,91.78589506784043,284947.4509723105,111454.26123688526,187385.42430168533,0,2326,1867,1
-1037.87247176477,-80.01151946669341,96.14071817924693,284405.57312232844,111127.51552254449,186061.96897451274,0,2370,1869,1
-1043.77353297769,-83.00550127552543,100.62572313097544,283882.4553904677,110789.52362854149,184648.59091793877,0,2330,1900,1
-1050.4364998881672,-85.65409401235557,105.22026730696915,283375.4350769723,110437.65068219962,183136.60498208585,0,2338,1927,1
-1057.9092440267395,-87.94034439744584,109.90360249305265,282882.55284089624,110069.2834136646,181517.7253815498,0,2319,1953,1
-1066.2373281062953,-89.85291426419516,114.6567578561737,282402.86953928124,109681.89881809305,179784.46053029152,0,2363,1959,1
-1075.467153015387,-91.38774743149206,119.46198059819272,281936.62436733826,109273.05315203183,177930.34745478843,8,2311,2026,1
-1085.64876086098,-92.55076634199409,124.29748932738556,281485.29097861267,108840.2147076538,175949.9233584498,0,2306,2036,1
-1096.8350708496548,-93.36001933522024,129.13003456532584,281051.70722389553,108380.52690675,173838.5983412328,1,2273,2064,1
-1109.0768813884335,-93.84166774364998,133.91224667771513,280640.40207955666,107890.76612067186,171592.51570906353,0,2275,2085,1
-1122.4165594420676,-94.02023777192592,138.58720175139987,280258.03828940826,107367.64830556687,169208.30527187322,0,2239,2145,1
-1136.8835931387596,-93.9106964705683,143.09590433790171,279913.68623815785,106808.36162534707,166682.83969703424,0,2179,2211,1
-1152.492146286912,-93.51491777682624,147.38465951923845,279618.6551399635,106211.11388022972,164013.13548805483,0,2166,2231,1
-1169.239390496708,-92.82003235471151,151.41198468388166,279385.87352605193,105575.5680508278,161196.31981489138,0,2096,2285,1
-1187.1049868979972,-91.79821922592978,155.15370626094344,279229.1196050279,104903.03207313347,158229.67154962226,0,2082,2290,1
-1206.0519724760973,-90.40822310564504,158.604924401369,279162.3302902652,104196.30101827765,155110.79783022308,0,2058,2183,1
-1226.0271676662069,-88.59770628514708,161.77844895217828,279198.97171939164,103459.25145772017,151837.88862854074,0,1984,2219,1
-1246.9597743419338,-86.30651058325456,164.69902518429421,279351.42287108506,102696.31325984762,148409.9965929042,0,1869,2285,1
-1268.759019144151,-83.47133556089187,167.39412361671594,279630.37390538485,101911.87591784936,144827.35000665206,0,1863,2279,1
-1291.312022269682,-80.03110907754092,169.88491760369928,280044.3352786357,101109.83842435363,141091.76558065877,0,1833,2358,1
-1314.483290291945,-75.93306317322072,172.17947864924034,280599.33083372563,100293.47677389967,137207.09656666752,0,1732,2387,1
-1338.1163258048975,-71.13960803110648,174.2670611022166,281298.7128858914,99465.53832245657,133179.51193140273,9,1726,2419,1
-1362.0349730114874,-65.6337655071342,176.11368931350762,282143.0800141849,98628.43604915407,129017.62142621615,0,1614,2468,1
-1386.0426316256319,-59.42164353473002,177.66052264147837,283130.40037397185,97784.51421163687,124732.50049399277,0,1539,2495,1
-1409.9199391742227,-52.53303915432559,178.8249120467737,284256.37432605814,96936.37849072836,120337.55249483904,0,1442,2569,1
-1433.4214593919414,-45.02152092039817,179.50339768601782,285514.8578029057,96087.25332515802,115848.40670370698,0,1325,2613,1
-1456.2724414916556,-36.96418510547679,179.578017012278,286898.23744409886,95241.35909270945,111282.97364223716,0,1279,2628,1
-1478.167470363946,-28.46065924408449,178.92747102920782,288397.8030623921,94404.34167436993,106661.45218810785,8,1162,2659,1
-1498.771628971496,-19.63139015898925,177.4404283569221,290003.96182318445,93583.69624719351,102006.33940589812,0,1121,2669,1
-1517.7258982686185,-10.614686592549662,175.02868903698038,291706.021873531,92789.04322927615,97342.5589369957,1,1004,2675,1
-1534.6579367967947,-1.5618751408096432,171.6407124593897,293491.50413690007,92032.16290439307,92697.58529361684,0,865,2685,1
-1549.193014299482,7.367478283728264,167.27172483843913,295345.1853947449,91326.75599142104,88101.64730272653,0,811,2687,1
-1560.9600237977954,16.007301201688456,161.96415089976557,297248.09474246885,90687.80235497399,83588.09476967945,1,765,2675,1
-1569.5941377491467,24.182249522453855,155.79826365589395,299176.6362053732,90130.50935517697,79193.75758417099,0,747,2658,1
-1574.7398556375874,31.70177915049063,148.8798449746552,301102.09022223036,89669.34548748501,74959.29030077132,9,755,2629,1
-1576.0596615697052,38.357223856842054,141.32978101183102,302990.84180768917,89317.66339318958,70929.45049150426,12,875,2577,1
-1573.250750050481,43.92857407202853,133.27455352299893,304805.43288963946,89087.86634223972,67153.02663358646,17,995,2518,1
-1566.0630494906081,48.20025087684644,124.8377628279517,306506.04486327985,88991.77207133753,63682.40568531457,11,1103,2406,1
-1554.3122473686676,50.98226587190509,116.13408869334482,308052.4098687776,89040.87908857419,60572.69730607534,15,1179,2297,1
-1537.8885653619282,52.13448143174719,107.26437811668154,309406.4870943784,89246.45510405624,57880.19978357484,23,1279,2180,1
-1516.761590733007,51.586713317008396,98.31151467635952,310535.22505509446,89619.55972347404,55660.71824321511,19,1373,2066,1
-1490.9790985376003,49.34926823157383,89.33901623415501,311412.8282395671,90171.2004955407,53968.12856375349,34,1513,1942,1
-1460.6604737259813,45.51801338115782,80.39467279137423,312022.96252813475,90912.73774999526,52852.87672800272,14,1619,1860,1
-1425.9878160947856,40.27837973152133,71.5187285578854,312360.7533536744,91856.3940526358,52360.59527523331,12,1693,1785,1
-1387.1934584431278,33.90597537322024,62.753785770889856,312434.2598779624,93015.52700835804,52531.27601407157,6,1749,1714,1
-1344.5432979943462,26.757611012288056,54.15662139324593,312265.94429537025,94404.26355318606,53398.9583852372,5,1776,1703,1
-1298.3244074785741,19.250939153557738,45.81167871496686,311894.1125722311,96036.20335759292,54991.82607550688,13,1780,1678,1
-1248.8422252012842,11.832391756179694,37.84124014515364,311373.0977415472,97921.87619331571,57332.6314862638,14,1829,1625,1
-1196.423916062691,4.9333437221842615,30.40701416333979,310771.1771561852,100065.03662349994,60439.16318204035,10,1873,1573,2
-1141.4254146275066,-1.0726832752370798,23.701677617699737,310166.54078517784,102459.17684657597,64324.30017374228,11,1872,1586,2
-1084.2388396660792,-5.899588210260247,17.929402521506656,309641.36995048396,105085.87116562584,68995.38261074177,11,1893,1556,2
-1025.295182863878,-9.367596263905545,13.275528973120334,309273.91997184383,107915.23713232896,74453.08923663288,2,1924,1531,2
-965.0626559786486,-11.410905800255705,9.876267818349506,309131.05713869014,110907.96886211254,80690.27981240427,3,1930,1513,2
-904.0418359438402,-12.065252000657033,7.8022793161369055,309263.6463588679,114019.21954363966,87691.33992208853,3,1959,1488,2
-842.7560221487208,-11.43549629409082,7.058162047071441,309704.2339752377,117204.56577295903,95432.25045148493,0,2010,1453,2
-781.7408497938432,-9.658485629093287,7.5929639769473605,310466.2940319683,120425.84216806223,103880.97368282922,0,2010,1455,2
-721.535873082215,-6.87160526217504,9.319504646528795,311545.4092800437,123654.53514776693,112998.16508496206,0,2007,1454,2
-662.6741890115483,-3.1842279301743104,12.140348575999374,312922.2260052108,126872.88591396017,122738.69128432419,0,2011,1454,2
-605.6721292885711,1.3448878653823115,15.96999023054281,314565.89777128276,130073.19540524333,133053.39951552212,0,2011,1452,2
-551.0209287757673,6.715730318701114,20.742103964573293,316437.38200556155,133255.06776767783,143890.74931302873,0,2011,1455,2
-499.1754814700189,12.980347780579184,26.403228608908762,318493.043863356,136421.0570352405,155198.79918524934,0,2010,1453,2
-450.5427708596721,20.225734999803464,32.90224597706189,320687.9639199402,139572.65344007278,166926.91927488186,0,2011,1451,2
-405.4767863510437,28.54592136997256,40.18142244323938,322978.1042994508,142708.3585378105,179026.6292516366,0,2011,1455,2
-364.27995962015996,38.003981842988644,48.16846323084343,325321.6816256907,145823.75526971478,191452.1585865256,4,2010,1452,2
-327.20917067848205,48.59809151279508,56.769887151302264,327679.98635699134,148912.48766544435,204160.52490559654,4,2009,1450,2
-294.48351381567045,60.246353502456984,65.86927225716906,330017.8375213123,151967.62819683453,217110.66813941216,4,2011,1451,2
-266.28989861091,72.7896524769763,75.33004454892838,332304.24523868394,154983.35036669855,230262.16613248043,4,2010,1452,2
-242.78587621328373,86.004143742192,84.99939381690722,334513.33371831453,157956.26257893437,243573.92837055385,0,2008,1455,2
-224.10057428221467,99.62035835119478,94.71655842459657,336625.43147993373,160885.8812295856,257003.29548847055,0,2009,1454,2
-210.33377367759607,113.34888979493502,104.33128083960011,338628.4333185627,163774.5918469304,270506.0716954539,0,2009,1453,2
-201.55467905072717,126.9043099695473,113.72717835439997,340518.9259193471,166627.33360465863,284036.88198652177,0,2009,1453,2
-197.8022497157801,140.01883269932168,122.83928183594176,342302.33691638365,169450.6827161309,297549.3969110256,0,2009,1454,2
-199.08647351064386,152.4485021287777,131.66083899785949,343992.0279872164,172251.192499653,310996.9131924104,0,2008,1453,2
-205.38899545457195,163.97717037215043,140.2386858517107,345607.7816840988,175033.5125180095,324332.9378248994,0,2010,1451,2
-216.66214849177237,174.41948095144758,148.65983898099364,347173.9963152507,177798.97153268894,337511.5135834623,0,2010,1451,2
-232.82635019420172,183.62189994833875,157.03523065215433,348717.6567758456,180544.8518173837,350487.9457747905,0,2009,1453,2
-253.76725481296296,191.4608304087644,165.48529561176483,350266.45676261344,183264.30450150548,363219.5745198546,0,2006,1454,2
-279.3343246777712,197.83863294445317,174.12914109913567,351847.3371110808,185947.0337819861,375666.14591056894,0,2010,1451,2
