AccX (g),AccY (g),AccZ (g),GyroX (deg/s),GyroY (deg/s),GyroZ (deg/s),Heel ADC0,MidFoot ADC1,Toe ADC2,LABEL
-1738.3177185792326,157.70818076203997,62.00159511143177,244815.44271829352,319699.4181916308,212883.10223171886,2,167,3043,4
-1726.6684658424542,191.23111340486884,54.48353105530352,253598.9347294033,317532.06976837304,206360.47609451317,2,269,2991,4
-1711.9984036228495,223.28244525363934,46.23180811824418,262060.52195129797,315391.2125234049,200111.31089435975,11,387,2864,4
-1693.9048231546512,253.45693016802298,37.37256098890402,270119.28292165406,313300.263913678,194223.09566045462,4,505,2766,4
-1672.0387447761861,281.3779374795273,28.05077581549026,277697.7011418601,311282.13972179795,188786.02345137185,9,649,2657,4
-1646.1212677945082,306.7178171626989,18.42459505347987,284723.5260564723,309358.71482365753,183892.3516108684,11,750,2582,4
-1615.956396782058,329.23151401409723,8.656292809168509,291133.7855638434,307550.454740736,179634.84798940472,2,950,2423,4
-1581.4407507436106,348.7859465625796,-1.090767835257298,296879.4716211179,305876.34261292097,176105.0466968151,4,1029,2342,4
-1542.562766098249,365.369175357979,-10.642107860585924,301929.05153928424,304354.1438174763,173391.93677854157,4,1173,2259,4
-1499.3888051661493,379.0820388637898,-19.79148150817397,306270.9015052094,303000.71013935487,171580.68153723635,3,1333,2096,4
-1452.0471785532436,390.11978411601416,-28.282640369415194,309914.4246785785,301831.9738990439,170751.36294960105,6,1531,1911,4
-1400.7221577366472,398.74157069704626,-35.80985094206645,312888.8699451605,300862.1498166382,170977.87595464848,4,1643,1784,4
-1345.660400899195,405.22683219022355,-42.0409154034928,315240.08492282993,300101.77555504744,172326.54932489022,0,1742,1687,4
-1287.1852804685363,409.8339870282561,-46.6482333128785,317026.57742168434,299555.19743413985,174854.36596326221,0,1768,1662,4
-1225.7094592393644,412.77513859569206,-49.33536115757704,318315.2423320961,299218.21972977807,178606.537636385,0,1847,1589,4
-1161.7380002707278,414.2029233130316,-49.860997916660914,319176.12291383836,299075.9300115551,183613.07286791276,0,1899,1546,4
-1095.8644520490504,414.2054330767731,-48.059520453709375,319677.1785922085,299101.1079043582,189885.31776186393,0,1944,1506,4
-1028.761688773506,412.81326305641653,-43.85155840832219,319880.42025144154,299254.0106412237,197414.08184494657,0,1994,1458,4
-961.1637114649778,410.0192944314691,-37.246102154653386,319839.20068234095,299483.638011616,206169.70867971933,0,2006,1458,4
-893.8418689251845,405.8034119397095,-28.338631987934942,319596.67227965774,299729.9539380822,216103.24772946714,0,2010,1455,4
-827.5763077625846,400.1586877822599,-17.30324531887719,319186.0855043306,299927.2533929146,227148.50833844274,0,2011,1452,4
-763.1178037374056,393.1215234429867,-4.376593511454212,318632.7567142587,300009.1831295888,239225.2680167454,0,2013,1454,4
-701.1525829705731,384.7988531760141,10.160904992714572,317956.5800771314,299914.21717621235,252242.4488727307,0,2010,1451,4
-642.2839523967112,375.38156805832546,26.003236933839485,317174.3600287397,299590.4441143948,266100.692133417,0,2010,1455,4
-587.0249449648202,365.1424494544408,42.83895359883474,316301.99559030705,298999.9536123735,280695.3735315882,0,2009,1456,4
-535.7976475090173,354.42088724315437,60.37048900539163,315356.12920307677,298121.9512492447,295919.5585718411,0,2008,1452,4
-488.9436799554384,343.58907815980683,78.3277749912673,314354.5389075518,296952.7358796224,311666.43157171656,0,2012,1454,4
-446.7457611075465,332.9967568903115,96.47384592200059,313315.19529126247,295502.3678173229,327832.0696687845,0,2009,1454,4
-409.45288230331374,322.91417266364783,114.59947810383053,312254.8784206118,293789.9819390431,344317.7006350287,0,2009,1456,4
-377.2993733875984,313.4961081867401,132.50943206143106,311188.779208232,291839.4402364551,361030.5917182944,0,2006,1456,4
-350.5112859690239,304.7706889050075,150.01007659628598,310131.7214874588,289675.7240809997,377884.4836714902,0,2010,1452,4
-329.2999493730291,296.64972427376,166.90679149775264,309100.28969576006,287322.8713864347,394799.4105827405,0,2009,1453,4
-313.84723004622157,288.9578696572222,183.01414927194818,308114.9989727563,284804.0155815833,411700.40508063155,0,2008,1454,4
-304.28937200113415,281.47290010252925,198.17564996396248,307202.2536778842,282142.46860373387,428515.95380389376,0,2009,1453,4
-300.7072528575073,273.96222907720363,212.28320695191474,306395.64949295676,279362.457997174,445176.7026567019,0,2010,1453,4
-303.1242991417895,266.20753616846,225.28883788945487,305735.7705786764,276488.73807574704,461614.66225484957,0,2009,1452,4
-311.5068092777416,258.02077728551166,237.20783300315355,305268.27970379085,273545.0613667174,477763.4087891447,0,2010,1452,4
-325.7642025498761,249.2519437112017,248.11395956586904,305041.1838556273,270552.4385522446,493558.6154648262,0,2010,1452,4
-345.75039270892216,239.78654779376114,258.1271014060239,305101.7657823884,267527.9787571457,508938.48892581207,0,2008,1454,4
-371.26672048328203,229.53586645323387,267.3949254616749,305492.9149570333,264484.3121255459,523844.70728235133,0,2008,1454,4
-402.0646419024074,218.42688934726297,276.07396016650307,306249.56395744946,261429.67871732343,538223.2534702248,0,2006,1454,4
-437.8479603363558,206.3972530184115,284.31526375601425,307395.99271822214,258368.95136766197,552024.5298687323,0,2007,1453,4
-478.2761412495836,193.39509687994897,292.2540882307022,308943.5717710605,255305.3980442759,565203.4125603155,0,2009,1453,4
-522.9677954798086,179.38203372964554,300.00218237589723,310888.8551609644,252242.51079805382,577719.164480837,0,2006,1456,4
-571.5056486373147,164.33774619503697,307.64200954802726,313212.39585435175,249185.38502379903,589534.9854264606,0,2008,1454,4
-623.445915910407,148.26380711150534,315.2213441359607,315878.209548178,246141.6507191236,600617.797378551,0,2009,1454,4
-678.3280607259541,131.18411723637587,322.74908640512825,318833.76602467697,243122.06770049143,610938.1711741388,0,2008,1453,4
-735.682474287691,113.13898791634197,330.1943609837492,322010.83154199645,240140.72615518185,620470.1764928316,0,2009,1452,4
-795.0397080848556,94.17246260098784,337.4881742626406,325327.3617694683,237214.88369819362,629191.5398207218,0,2009,1454,4
-855.9390831166643,74.31866666226162,344.52546838858734,328689.8145021949,234364.7243110545,637083.7900127757,0,2010,1451,4
-917.9341783133735,53.59085907797907,351.1685770758974,331995.78305094066,231613.13038157226,644131.8992961944,0,2010,1453,4
-980.5985895387909,31.971359158304,357.25416702612495,335137.55459513894,228985.3040081333,650323.6842415314,0,1997,1460,4
-1043.5300594600128,9.404060138953225,362.60200689020854,338005.89395526913,226508.3285078521,655649.1121988043,0,1996,1463,4
-1106.3492939351906,-14.207038600001512,367.0251426485583,340493.5433831196,224210.60456084425,660099.4734713238,0,1992,1465,4
-1168.695894000787,-38.99367013604747,370.3437124552603,342499.1105606463,222120.8389862927,663666.6149660988,0,1986,1471,4
-1230.2227167772814,-65.11505563314059,372.3991863780993,343930.71959015774,220266.79595306676,666342.3169368057,0,1984,1474,4
-1290.5885288959312,-92.74593789768969,373.06386034362043,344708.51246598817,218673.9901588123,668117.818648668,0,1980,1473,4
-1349.4512097340892,-122.06119472289822,372.2456506146336,344766.4608708935,217364.11937591768,668983.6170570474,0,1993,1468,3
-1406.4623681341243,-153.21994146392504,369.88868419903525,344053.60431535624,216353.62653030604,668929.5537182906,0,1997,1466,3
-1461.2649860130646,-186.3517645644651,365.9669738248534,342534.3439706763,215652.9444039124,667945.177688107,0,1989,1473,3
-1513.4972428380306,-221.54445099470502,360.47058769459784,340188.10319835955,215266.34173900116,666020.4374165823,0,1987,1475,3
-1562.7999998782657,-258.83273198664205,353.3903721634275,337009.0362109369,215192.1885997033,663146.569073685,0,1970,1484,3
-1608.8247677995403,-298.18748797319887,344.7071751025164,333006.15969160345,215423.68713142117,659317.0382974722,0,1972,1481,3
-1651.2425148094799,-339.50384212416003,334.3858809722757,328203.8612863419,215949.98457218552,654528.5526037558,0,1985,1478,3
-1689.749948498937,-382.58857838769745,322.3745434816523,322642.5615955696,216757.2760362202,648782.0464542358,0,1947,1504,3
-1724.0721898697254,-427.1490899927643,308.61136786148654,316379.0701099614,217829.82105377258,642083.4006314514,0,1956,1493,3
-1753.9668040089807,-472.7854806936109,293.0398074911982,309486.2025631682,219151.1904218535,634443.852522591,0,1963,1490,3
-1779.230611370047,-518.9872344038221,275.6268867163032,302051.82584031246,220705.5830636646,625880.3923650495,0,1963,1491,3
-1799.7103884627234,-565.1397201505989,256.3815604221706,294177.06124327076,222478.94005292095,616416.1861116413,0,1945,1513,3
-1815.3192540746174,-610.5442957596136,235.373999028293,285973.07765106455,224459.93825468534,606080.7400958728,0,1942,1510,3
-1826.0525871181383,-654.4439734668372,212.75205983983557,277557.5318802229,226640.56848455896,594910.0173582468,0,1961,1494,3
-1831.9973749743365,-696.0489574576552,188.74751135212958,269051.51745242014,229015.68932197912,582946.6377666382,0,1979,1476,3
-1833.3361570245015,-734.5649839317556,163.6702779731631,260576.48637986055,231581.48760203487,570239.8643826492,0,1978,1487,3
-1830.3448347833564,-769.2179629148956,137.89598431430363,252251.74411311105,234333.42153212958,556845.6773461574,0,1970,1487,3
-1823.3777499513828,-799.2683420674758,111.84949179881377,244193.0802267886,237264.01526211278,542826.9732339641,0,1971,1494,3
-1812.8388349592997,-824.0202967043253,85.98341177651436,236511.59504975294,240360.4890078497,528253.2919681693,0,1965,1495,3
-1799.1527663971963,-842.8288486763181,60.757196078856644,229312.44588077225,243602.7230276572,513200.4905381682,0,1966,1484,3
-1782.7483542880757,-855.1076193857907,36.62118169103368,222693.29159562994,246962.38306982865,497750.73617368017,0,1981,1477,3
-1764.048964039768,-860.3426021124594,14.002601161597422,216741.6113835482,250403.34783081568,481992.2549897482,0,1973,1483,3
-1743.4607500558577,-858.1091325518801,-6.705679421003026,211531.4200810739,253882.84048905552,466019.1629075914,0,1989,1476,3
-1721.3558671683154,-848.090345164178,-25.153530830951645,207119.79233587807,257353.1123527748,449931.7434531207,4,1977,1483,3
-1698.0566659513895,-830.1044602799917,-41.04305863182844,203542.7064063603,260764.0329183102,433836.6405915421,3,1992,1469,3
-1673.8317983229604,-804.1398691478438,-54.139075021905825,200811.32338257777,264066.02351007494,417847.1768324425,0,1997,1467,3
-1648.903682857788,-770.3911442128687,-64.2837800945297,198909.97857130584,267212.6481929057,402083.63361600833,0,1994,1465,3
-1623.45697657126,-729.2951030769419,-71.42242178402614,197795.39605089038,270162.76170579856,386672.3908011115,0,1984,1477,3
-1597.6431450048397,-681.5614587108366,-75.63316475912085,197396.97266748964,272881.5756352878,371744.2573343878,0,1965,1492,3
-1571.5836341732486,-628.1889761366468,-77.15023930124377,197619.5765890059,275340.44581699907,357432.0974184979,194,1976,1474,3
-1545.375641192164,-570.4655761557657,-76.38104708965977,198349.66777309094,277516.45371394587,343866.7132791648,738,1990,1469,3
-1519.098676433022,-509.95090037638613,-73.91116095499217,199462.94348330915,279392.80147049355,331171.9760823399,1661,1983,1474,3
-1492.8143719737345,-448.409148017744,-70.47184203549075,200832.60697865608,280961.37731312343,319459.72732517845,2240,2012,1454,3
-1466.5596130465408,-387.6562739492854,-66.86189318207379,202339.1282803985,282228.8182987556,308823.1811733396,2615,2010,1460,3
-1440.3440513824435,-329.3516828988417,-63.85605765026548,203879.80633256165,283224.47064903344,299330.1720160962,2757,2012,1456,3
-1414.1577895544128,-274.7838274531088,-62.10119407515242,205377.57661799574,284006.946477589,291017.92744401685,2714,2014,1451,3
-1387.989715374764,-224.72007613819179,-61.97253505461021,206790.5092206567,284665.0950803264,283890.2169148952,2767,2013,1452,3
-1361.8649205540817,-179.43449152522572,-63.46065849587751,208117.60857591775,285309.20388540556,277919.6894016825,2689,2018,1453,3
-1335.8937719971198,-138.8810606506251,-66.18821024912684,209394.91965723727,286055.12859920197,273054.60171925183,2666,2025,1452,3
-1310.2937347594877,-102.85009896832425,-69.53909514446607,210681.62592982256,287007.0547479805,269225.326899266,2621,2025,1456,3
-1285.363250568968,-71.05350832845942,-72.82303855206304,212041.13208965978,288240.76742210326,266350.090260779,2542,2025,1453,3
-1261.4286730937044,-43.16731940371968,-75.40379611304121,213526.21209418867,289791.332888101,264341.00898854097,2595,2047,1454,3
-1238.783305509589,-18.841228019963562,-76.75961847979062,215173.23088300342,291649.6195703237,263109.2457778947,2597,2042,1451,3
-1217.6278749340252,2.3113519172171726,-76.50383952882247,217002.103289304,293766.0134111073,262568.52382590366,2692,2061,1453,0
-1198.0349450156893,20.720044898541534,-74.3965689029185,219017.68776522088,296056.7562384663,262636.9927838099,2718,2064,1453,0
-1179.9527166978282,36.8449714632352,-70.35778502630426,221211.41944399461,298411.202607805,263237.75700111134,2771,2068,1454,0
-1163.2428328646633,51.139421230754145,-64.47507778435974,223563.71198589422,300701.72581269743,264299.22095566534,2807,2083,1454,0
-1147.7355935630449,63.99949458626025,-56.98884100523501,226047.17452584876,302796.1505043071,265756.00562720443,2835,2096,1455,0
-1133.276500125851,75.72554862557163,-48.26250160090202,228629.4117441792,304569.29521265934,267549.8634795309,2835,2107,1457,0
-1119.7465283789893,86.5118866747142,-38.759330912109064,231275.0347419712,305912.9147627795,269629.56172823836,2836,2127,1464,0
-1107.0619853654557,96.45994256852367,-29.02281767121406,233947.89029884484,306745.80831938505,271949.58637698,2799,2122,1465,0
-1095.1663182632044,105.60007004969633,-19.645176900143383,236613.60931192228,307022.54083407763,274468.4744834929,2790,2120,1466,0
-1084.0165048405374,113.91764265271628,-11.207575870018003,239241.66138772483,306738.25803410605,277147.50965702545,2758,2098,1459,0
-1073.56595341579,121.38654726102449,-4.187163989918037,241806.44925719596,305929.63530817494,279949.9769637713,2725,2093,1463,0
-1063.757163489262,128.00011067069718,1.1296481879091838,244287.1669624214,304671.6908416742,282841.0024945752,2652,2090,1459,0
-1054.5353630524235,133.78511016778882,4.676024917261879,246666.73353610875,303067.5944827185,285788.07969676185,2566,2110,1467,0
-1045.8712186599412,138.79815851693633,6.570667378720891,248930.79256469628,301230.8726142234,288762.04555052397,2480,2115,1463,0
-1037.7697619150852,143.11315981135698,7.056369722235701,251067.38934876135,299267.3156731797,291737.6583023365,2389,2129,1463,0
-1030.2591117520722,146.80836655138123,6.439839347235651,253067.20999756324,297263.7083739774,294693.1170785543,2242,2097,1459,0
-1023.369956911673,149.95689246111496,5.037100146096104,254923.94757345325,295282.76190985896,297608.748136092,2123,2107,1457,0
-1017.1203602566064,152.62216468459798,3.1304565715712847,256634.35444089255,293362.06514557835,300465.6207148372,1962,2112,1459,0
-1011.5122389873723,154.85942472783125,0.9435821999061283,258197.83390014514,291516.7235440257,303244.77319806867,1771,2128,1459,0
-1006.5342292503751,156.72031917580242,-1.371389495728089,259615.85462669848,289745.13158204436,305927.3219616702,1546,2120,1461,0
-1002.1634776488431,158.25501209649175,-3.73772375136604,260891.5247192825,288036.1420727434,308495.20020541974,1516,2116,1458,0
-998.3647554128881,159.51032184356552,-6.1478135186534715,262029.3368014775,286375.21096935554,310931.92370797624,1357,2123,1461,0
-995.089925767176,160.5264153149258,-8.64692985340965,263034.898511449,284748.9145115296,313223.1614616734,1259,2138,1465,0
-992.2803960261524,161.33392422630232,-11.306849794873404,263914.5778721344,283148.7979142223,315357.3311576436,1039,2158,1471,0
-989.8725510776327,161.9524122218303,-14.197106157543319,264675.1220730561,281574.1984103125,317326.09201358026,1101,2163,1486,0
-987.805484079388,162.39100305486102,-17.36281648648751,265323.29259925656,280032.7801724884,319124.4519800457,939,2147,1475,0
-986.0294976180295,162.65072379760963,-20.80950705306227,265865.57085883414,278538.71841225616,320750.55952333455,924,2166,1501,0
-984.5116523861445,162.72691422634884,-24.496516950797236,266308.04912156536,277109.7734107341,322205.3188594209,819,2179,1644,0
-983.2355486908139,162.61084511162971,-28.344055632105434,266656.6133746143,275764.10879174864,323491.84990755917,790,2196,1642,0
-982.1963117639884,162.29124238231273,-32.25179324563795,266917.37294050294,274517.002828474,324614.8396835346,588,2208,1643,0
-981.3944530673764,161.75586613116405,-36.118155094451545,267097.0752730738,273378.4017574805,325579.9394123759,588,2224,1653,0
-980.8314875806883,160.99230330269575,-39.853538848736285,267203.28529308917,272352.33117737,326393.35469979665,412,2230,1659,0
-980.5073743699835,159.98809708656105,-43.38917505223621,267244.3526191762,271437.8099707353,327061.6318128013,415,2260,1645,0
-980.419177953512,158.73117955303888,-46.68213111183109,267229.2684010531,270630.3139463957,327591.5652262248,276,2260,1656,0
-980.5608569055103,157.21107871088452,-49.71443808250773,267167.44164305687,269923.3295995283,327990.1772365656,211,2258,1653,0
-980.9238590521855,155.4205945334029,-52.48707245597613,267068.42288957903,269309.93671506975,328264.747319003,211,2282,1654,0
-981.4981094813488,153.35714277337513,-55.01210412986214,266941.6704923957,268784.06401197123,328422.83630463504,260,2260,1671,0
-982.2732726052996,151.02313875817336,-57.30534059381069,266796.389261024,268341.0079960587,328472.2056464237,208,2273,1663,1
-983.2403170745872,148.42542167749986,-59.38004119239765,266641.37363488955,267977.321437664,328420.5816738764,230,2275,1659,1
-984.3928768683803,145.5742677907323,-61.243144589420154,266484.85508248396,267690.41525060433,328275.31195607263,117,2238,1692,1
-985.7280756656046,142.4823258791802,-62.894810240422615,266334.4165613225,267478.05073149136,328042.90208756033,147,2258,1687,1
-987.2475520781898,139.16324527060644,-64.3289564191484,266197.01705210545,267337.7991299582,327728.3994975393,78,2254,1711,1
-988.9587531896361,135.63130583709,-65.53317483285981,266079.02776281204,267266.6473803697,327334.8759763683,120,2247,1729,1
-990.874916198246,131.90547425211048,-66.49079432653882,265985.89612444374,267260.91294642474,326863.45912877936,110,2279,1729,1
-993.0127860676765,128.0183114099515,-67.18778697665923,265921.19796768046,267316.49258400185,326314.0917779089,100,2275,1759,1
-995.3896195302384,124.02339375890723,-67.62042286678532,265885.597410274,267429.36657125637,325686.6434142654,92,2260,1779,1
-998.0222835273872,119.99303431353125,-67.79647331815782,265876.51835554966,267596.2668847084,324981.7752204003,51,2313,1765,1
-1000.9294887034403,116.00562274490706,-67.72965533554651,265888.61885044444,267815.40188717894,324201.2758650746,113,2301,1790,1
-1004.135480677635,112.13179432202156,-67.43330035873029,265914.53321506135,268086.9261168527,323347.90586933796,75,2365,1760,1
-1007.673270295718,108.42807403108017,-66.91660529252178,265945.6175902505,268412.7890714869,322424.78178567026,36,2345,1784,1
-1011.5865539166459,104.9375530272907,-66.18280737953643,265972.8119179802,268795.9568662133,321434.3556374852,53,2379,1764,1
-1015.9294328906312,101.69320756505223,-65.22881258282926,265987.4870163226,269239.44105208444,320377.3758623815,57,2353,1803,1
-1020.7631732054814,98.72197658750267,-64.04641069861246,265982.00287245074,269745.60006544006,319252.17866217403,26,2307,1851,1
-1026.1508642397225,96.0490282052032,-62.624301263469505,265949.9572505954,270315.86783066316,318054.2815617854,24,2291,1878,1
-1032.1526013858404,93.70073622467993,-60.949311924423036,265886.177511875,270950.8823190051,316776.30510664603,0,2280,1928,1
-1038.823442013588,91.70524986433159,-59.00544604889537,265786.4515829442,271650.9975438341,315408.35509106284,0,2267,1964,1
-1046.2141622821005,90.09125337967889,-56.771016858321886,265647.07886516914,272417.06187542214,313938.781365459,0,2275,2007,1
-1054.3745084041652,88.88678393483634,-54.21737931300751,265464.4660457162,273251.0544285043,312355.035785542,0,2263,2058,1
-1063.3592256606962,88.11874429705671,-51.31673468873167,265235.03667528805,274156.05452750396,310644.4735484172,0,2221,2086,1
-1073.233051847541,87.81060096050646,-48.063056134461476,264955.61880536226,275135.3053191646,308795.1368108087,0,2236,2103,1
-1084.0677148419827,87.97873074166561,-44.49184120001103,264624.343030482,276190.812087542,306796.47097638686,0,2197,2152,1
-1095.930586059219,88.63291342534869,-40.67594534627512,264242.01099523914,277322.49619747116,304639.77536626434,0,2153,2182,1
-1108.8741192322807,89.78037785587262,-36.701746468385,263813.49840533524,278528.5783689108,302318.2274268477,4,2084,2176,1
-1122.9341739694387,91.42722736190372,-32.65009951421511,263348.38394414465,279806.70605905924,299826.62149796326,7,2122,2269,1
-1138.135405736519,93.57676086814813,-28.588825364153234,262860.4920610977,281154.74331130175,297161.1148329567,9,2049,2166,1
-1154.4967793416777,96.22858429467314,-24.570853784063626,262366.8162008897,282570.8313203262,294319.0260441101,13,2019,2237,1
-1172.0328491516884,99.38070716313148,-20.636774484037872,261886.6379983563,284053.00855543144,291298.6957340701,9,1971,2270,1
-1190.7514712095265,103.03284374788474,-16.81916074529501,261441.3505457562,285598.66542930534,288099.3902632697,2,1871,2347,1
-1210.6508092806157,107.18778619733241,-13.144974927752742,261054.7096030741,287204.0895827393,284721.078463839,7,1739,2430,1
-1231.7163697716728,111.85165278253716,-9.635312317470117,260752.92737065302,288864.3348112953,281164.1531303323,0,1696,2454,1
-1253.9175039629606,117.0348313325035,-6.303240646910013,260564.35797349364,290573.4371749187,277429.26177438285,10,1592,2533,1
-1277.203354258295,122.7526257782431,-3.151752495590692,260518.85669671878,292324.79259960836,273517.2479963381,8,1431,2629,1
-1301.4987869471522,129.02502785388248,-0.17354157629621655,260646.83742372418,294111.488686299,269429.2429413358,0,1403,2647,1
-1326.7009654024398,135.8766549170239,2.647223674227417,260978.02151445774,295926.49582394457,265166.96287633444,0,1287,2710,1
-1352.6765667870482,143.33686300020926,5.331944455378644,261540.24589379068,297762.62000032706,260733.25407466368,1,1182,2767,1
-1379.260079603547,151.43846348463768,7.904387955838022,262358.6404016722,299612.1670657535,256132.83326827807,1,987,2798,1
-1406.2538266464478,160.2142072278588,10.387700017134941,263455.01835089916,301466.4476886214,251373.03674686962,20,838,2871,1
-1433.428356519052,169.69208709706808,12.801723048374543,264847.3378882096,303315.30318452744,246464.49714417188,1,804,2885,1
-1460.5221482496702,179.8906304855853,15.159543530979457,266549.18758796214,305146.81623875495,241421.7153159245,1,685,2932,1
-1487.2414814298609,190.81455116737214,17.462247791930128,268569.1905955227,306947.30645698507,236263.4773786161,0,539,2973,1
-1513.2600325727392,202.45134603156842,19.69346351518845,270910.3819053989,308701.5641255187,231013.24871648755,7,480,2983,1
-1538.2180866129786,214.76901008782372,21.816351432328194,273569.7821427522,310393.42720524216,225699.56271208057,0,391,3020,1
-1561.723401476049,227.71365441348232,23.77440314710911,276538.28624428704,312006.8577062774,220356.20539025852,0,266,3042,1
-1583.3547397911652,241.20581590134074,25.496601782132256,279800.7390626466,313527.1497050625,215022.24137216245,0,223,3061,1
-1602.670253206265,255.13640786287868,26.90884461979808,283336.04568079446,314941.8846111944,209741.8188371156,2,175,3054,1
-1619.2223749590682,269.3653009404103,27.95145430254003,287117.21471369383,316241.66086915805,204563.5244547963,2,166,3069,1
-1632.5723924755796,283.72423126911093,28.595121619401997,291111.1109232041,317420.3966129596,199539.7118482576,1,218,3074,1
-1642.2972036574167,298.0230213770709,28.84840983968496,295277.8236198147,318474.9380749446,194726.33818594538,9,213,3019,1
-1647.9905590238884,312.0558960649828,28.7576293108824,299569.9145453894,319404.19038935035,190183.2035259323,5,294,2980,1
-1649.2660558404764,325.6040509837765,28.398344194062314,303932.08450194553,320208.09530628385,185974.2983601069,9,341,2920,1
-1645.766723451704,338.4346917477419,27.856574543649977,308301.64917856985,320886.6648961972,182168.03425508627,14,455,2836,1
-1637.1798491086292,350.3027889116179,27.207564727430825,312609.7291525698,321439.4726877787,178837.222742859,9,573,2740,1
-1623.2541471666598,360.96605403352896,26.504043580494503,316783.720932539,321866.1725267293,176058.44178611555,17,652,2675,1
-1603.818734365159,370.21593211810193,25.777857161546336,320751.7944702304,322168.161179487,173910.39075490227,11,805,2550,1
-1578.7990899742929,377.9095982129385,25.05161579668203,324447.99072467885,322350.54962032306,172471.75908705965,18,902,2473,1
-1548.222297795609,383.98922378715434,24.357817126583463,327816.40710009664,322423.46036634844,171819.1784243537,5,1023,2354,2
-1512.2107152372616,388.49052275401783,23.763979041295514,330814.8208491209,322402.43127851863,172025.14063424442,15,1177,2217,2
-1470.9711998154949,391.5426368786971,23.395633321388424,333417.3623472781,322308.0243839934,173156.256772168,12,1423,2009,2
-1424.7862270341554,393.35045032418816,23.445823947742284,335615.13840063626,322164.38878037716,175272.29801904413,7,1587,1844,2
-1374.0088911671548,394.15396600198477,24.166356428006562,337414.64869894093,321996.33945956297,178425.48056709566,0,1722,1731,2
-1319.0639646664422,394.1804343668582,25.84588509475589,338834.62579875754,321825.3956284954,182659.3297220057,0,1738,1699,2
-1260.4535347747383,393.60817168289174,28.782123071505016,339902.62265256455,321666.2334495546,188007.04820692944,0,1773,1661,2
-1198.758838964135,392.5453162552707,33.25009738626126,340651.93114045006,321524.1986072187,194489.4071516318,0,1857,1599,2
-1134.6337736216287,391.0246647976653,39.47270770740155,341118.28017551097,321393.3899421394,202112.1999774761,0,1927,1521,2
-1068.7948921209602,389.01452616305727,47.60309153582461,341336.617058925,321255.3286886518,210863.89882781004,0,1945,1505,2
-1002.0118096654745,386.43868974861357,57.71753174555408,341338.58540200867,321078.8352675973,220714.62583514425,0,1982,1468,2
-935.0953054551939,383.19940857778323,69.81262252300509,341150.5679773944,320821.30241858907,231616.89042911815,0,2013,1453,2
-868.8746851998474,379.2014697518599,83.80662411926141,340792.5847292023,320431.0165688246,243507.30129211192,0,2009,1455,2
-804.1604574930723,374.3771162700363,99.5469481702492,340278.7343306733,319850.82781309186,256309.11816700487,0,2011,1450,2
-741.707827034272,368.7070318729634,116.82100571608083,339619.07515080064,319023.6231546321,269936.20314777666,0,2013,1451,2
-682.1958422543179,362.2323809073468,135.3689366676769,338821.9282340556,317898.17006980116,284296.9035563672,0,2014,1455,2
-626.2181956361644,355.05979368055984,154.89981782987527,337895.89803177305,316433.9852599083,299296.63998960675,0,2010,1452,2
-574.2814625004851,347.35985022408477,175.10924803812676,336851.7218090003,314605.5635126936,314840.13445395796,0,2009,1453,2
-526.8097944846596,339.350833322697,195.69906698451553,335703.6361560088,312405.2992441758,330833.1310516902,0,2008,1458,2
-484.15301348081994,331.2587598526273,216.3986683911826,334469.35521943134,309843.195331017,347183.25245387864,0,2011,1451,2
-446.5992325654232,323.26220249094996,236.97395252445156,333168.55149750994,306942.9804242799,363800.96929513506,0,2010,1453,2
-414.39120471881745,315.45005312085505,257.2193028577203,331821.1899693087,303736.8792867175,380600.4227250781,0,2011,1452,2
-387.73992331437904,307.8119004333834,276.9484885469913,330447.3465636782,300261.25915762724,397499.55275854183,0,2010,1451,2
-366.83044081710864,300.2531453221845,295.99432391264264,329068.6069690584,296553.4081017513,414420.1017994695,0,2011,1451,2
-351.81660674018104,292.6201017870411,314.21511674683416,327709.728902042,292649.51918565243,431287.3044817718,0,2010,1451,2
-342.8076979461775,284.72858126556116,331.50404483849707,326399.4129631897,288583.70635880914,448029.30079778197,0,2011,1451,2
-339.85803468544725,276.38914929848545,347.7957201000452,325169.93747534574,284387.06159781927,464577.2027625633,0,2011,1451,2
-342.9647276064501,267.42680203408617,363.06645497970305,324056.0393764902,280086.69811378064,480865.4333310634,1,2010,1455,2
-352.0696486157753,257.6974170579955,377.3283388486018,323093.4179081479,275705.3641719642,496831.5187087384,0,2010,1452,2
-367.06206495191384,247.09635546298787,390.6195665744952,322317.06351897883,271261.59409920743,512415.63020990475,0,2010,1455,2
-387.7819352542229,235.55327433560683,402.9957568617759,321759.41950968286,266770.18142170267,527560.6184124794,0,2010,1452,2
-414.0250824698667,223.01607769066942,414.52353829503693,321448.2362916057,262242.9002839017,542212.8358984641,0,2009,1455,2
-445.54867083938086,209.43463883411474,425.2745444009047,321404.52901169565,257689.37793649177,556322.7992515495,0,2010,1451,2
-482.07518264983975,194.75160317983045,435.31941586545577,321641.15990648355,253117.98377211968,569845.0138884045,0,2010,1453,2
-523.2956558759531,178.8989177294977,444.7221031156057,322161.885474126,248536.61353687022,582737.6170780036,0,2010,1451,2
-568.8718134098782,161.79821225145812,453.5342405454358,322960.73043827974,243953.32586202404,594961.947797902,0,2010,1451,2
-618.4380333980366,143.36576961325778,461.78767828359946,324021.8374907064,239376.67985976904,606481.9010960826,0,2010,1453,2
-671.6052410396076,123.52125811720967,469.48414380059,325319.77864616533,234815.62911025758,617263.5120050585,0,2009,1451,2
-727.9640687193763,102.19658808038542,476.5856957836647,326820.14248946554,230279.29027017043,627274.6071682705,0,2009,1454,2
-787.0863901966616,79.3406785045391,483.0096792367314,328480.4202358792,225776.9451862998,636484.3314168905,0,2010,1453,2
-848.5283017580773,54.9189965952463,488.6274140042768,330251.29207450553,221318.25181599162,644862.9488911341,0,2010,1452,2
-911.8329281337283,28.910237300345806,493.2647871055552,332077.9645827013,216913.690525765,652381.7599353918,0,2010,1454,2
-976.5326526265185,1.3009806378756297,496.7054457477727,333901.47731316386,212575.3378318302,659012.9098423029,0,2009,1455,2
-1042.1549254544416,-27.922216933481067,498.6973107274756,335660.3623999379,208317.87273456308,664729.4245282683,0,2006,1452,2
-1108.2293133427927,-58.77955830018638,498.9616660093602,337292.4480067026,204159.64452573267,669505.3694737322,0,2009,1452,2
-1174.2917005798536,-91.29928107250298,497.208639358387,338736.66115487705,200123.5912117661,673315.8446392058,0,2010,1454,2
-1239.8864915454653,-125.51348147938467,493.16269311142804,339935.09633143974,196237.85056940626,676136.9263249516,0,2004,1459,2
-1304.5658161239485,-161.44949861948476,486.5900047578023,340834.81828517735,192536.0239675225,677945.5282472633,0,2004,1460,2
-1367.8871342502946,-199.11734844922051,477.3189041939473,341388.7556815777,189056.74747606434,678719.1846412267,0,2000,1461,3
-1429.4142355611082,-238.49502368173577,465.2538305566136,341555.9198930821,185842.22809149636,678436.0431532953,0,2005,1459,3
-1488.7199215378491,-279.51556814141395,450.38260293834963,341301.28160638455,182936.2961372874,677075.1756470005,0,2000,1463,3
-1545.387946462655,-322.05974707619237,432.7736778299248,340595.2641181332,180382.49844102393,674617.1860261128,0,2004,1458,3
-1599.0168654740407,-365.95447581577474,412.5645475074386,339412.83088877576,178222.17393213755,671045.178303698,0,2001,1462,3
-1649.2242987582724,-410.97301626914657,389.94771866174085,337732.52686637215,176493.01000081995,666345.9887098889,0,1994,1469,3
-1695.64950187773,-456.8339126041719,365.1562648160062,335535.9635084239,175228.56500614245,660511.4749293984,0,1992,1472,3
-1737.95812588264,-503.1998125554945,338.4460345569818,332808.22468694515,174458.28388783263,653539.8271569643,0,2000,1463,3
-1775.84957865172,-549.676837206503,310.0793807308481,329539.5645344477,174207.47093045333,645436.9513044512,0,1998,1467,3
-1809.0621718956513,-595.8127776638236,280.31934047764037,325727.98884974257,174497.19365623547,636217.8597506462,0,2002,1465,3
-1837.3767334779993,-641.0946181944548,249.43560281983517,321382.11012481165,175344.16278667309,625907.7777403416,0,2008,1460,3
-1860.6230380696281,-684.9474776730993,217.71770866340356,316524.10084570857,176760.487517833,614542.7505243921,0,1994,1465,3
-1878.6880983404578,-726.7345036826202,185.48898469976936,311192.05533045053,178753.23393246118,602170.0116459391,0,1996,1465,3
-1891.5252277224079,-765.7595024528479,153.11470836627382,305440.6118057932,181323.72962286448,588847.9977678359,0,1984,1476,3
-1899.1654509109535,-801.2764703707904,121.00194368157615,299339.61960792606,184466.58122353064,574645.5777512408,0,1986,1474,3
-1901.7279775873237,-832.5037654359822,89.59279041584915,292971.91646601073,188168.59375772954,559641.1493857768,0,1992,1469,3
-1899.4243498664312,-858.6429028998182,59.34972848724146,286430.706491931,192407.80576781498,543921.9311908124,0,1997,1467,3
-1892.554697942866,-878.9073080317658,30.731679268550703,279816.17936576094,197152.617843362,527582.790887036,0,1997,1466,3
-1881.4962196726403,-892.5558925635265,4.1725619138500925,273232.16640648094,202361.04328121673,510725.19875147333,1,2004,1465,3
-1866.6818263171965,-898.9275767084641,-19.92506005983771,266783.05607599305,207980.70578153332,493456.89805336634,0,2000,1462,3
-1848.5708974363788,-897.4817044816616,-41.186689153033356,260569.74281125548,213950.2479637825,475891.68050128844,0,2000,1464,3
-1827.6240370410412,-887.8380502632411,-59.265230325181236,254685.1150963159,220201.6041461431,458149.55616219575,0,1990,1475,3
-1804.285751525383,-869.8100352472724,-73.8514812229894,249209.86359044135,226662.26891578684,440357.44804435095,0,1982,1482,3
-1778.9657822166798,-843.4352746519417,-84.69923642710818,244207.98235872228,233257.19375073948,422649.38238029473,0,1996,1469,3
-1752.0193875633356,-809.0010157184746,-91.65743845105477,239722.7492578913,239909.4070264036,405166.2575541987,0,1995,1466,3
-1723.7370653393518,-767.0604395025722,-94.7057164808332,235774.36774725048,246538.83548379087,388055.3052177314,0,2000,1470,3
-1694.349182246609,-718.442213075631,-93.99939250219437,232358.9708553923,253060.43645101765,371468.4319165943,120,2012,1454,3
-1664.0427573311836,-664.2561847834302,-89.91485093872588,229449.13442620382,259383.1121330931,355559.9414413901,783,2011,1452,3
-1632.980602057646,-605.8927016614662,-83.0709355728464,226996.9823187994,265410.77700354566,340483.40364660945,1771,2017,1451,3
-1601.3116366301113,-545.0057661489018,-74.30946289750048,224939.79560554147,271046.4098956563,326386.2781887919,2472,2013,1453,3
-1569.1698966902632,-483.457981598779,-64.64413276026491,223205.99316005674,276198.8354551048,313403.8136543854,2766,2012,1453,3
-1536.6721989750233,-423.16337490454737,-55.197970115201585,221721.17127626325,280794.4528562387,301653.05117734673,2837,2009,1455,3
-1503.9271019375146,-365.8038711821255,-47.09164294098717,220418.1814766245,284795.8724709042,291224.2915371318,2831,2005,1458,3
-1471.054412431064,-312.56322300114255,-41.21660197687476,219252.64780493214,288220.63465870783,282170.8496850184,2954,2012,1455,3
-1438.2113441605457,-264.0491263694306,-37.97699300169036,218216.41691320372,291148.3212110356,274503.072748002,2920,2013,1454,3
-1405.6299582462182,-220.41231473767107,-37.21401501010648,217338.13048963132,293707.2580007366,268190.9177330475,2853,2016,1454,3
-1373.6470389429421,-181.543527821275,-38.36737343967588,216668.6995812504,296042.25771465356,263172.6279134368,2776,2025,1453,3
-1342.6911427921364,-147.21466900557914,-40.70430736027931,216262.0501013168,298280.2849193038,259363.63907324863,2724,2017,1452,3
-1313.219039322635,-117.12721044423276,-43.473978235663566,216162.3134937495,300509.16083574755,256664.38496918365,2691,2020,1452,3
-1285.6230253847539,-90.91872141578011,-45.9925014330648,216398.80509035353,302769.7462996293,254968.4141722034,2756,2013,1454,3
-1260.1524270989485,-68.16375589082314,-47.69584186441358,216985.34744909423,305057.6649729834,254168.8075459726,2825,2042,1452,3
-1236.8830570997857,-48.37743686167645,-48.167368109943595,217921.29661147992,307330.1131394678,254161.01919515443,2867,2047,1450,0
-1215.7324349599535,-31.033528752664036,-47.149982452414385,219192.83040349736,309514.2151811764,254843.99159518865,2893,2034,1452,0
-1196.5038446612166,-15.603806913885398,-44.55241980606071,220774.63792851265,311517.2274928974,256121.53510949496,2910,2047,1450,0
-1178.9381167714,-1.6043073906948424,-40.44888636826315,222632.01376818365,313237.2010813205,257903.87435208276,2928,2047,1452,0
-1162.7614981202594,11.366683068331495,-35.06828233959018,224723.0430137701,314572.8009744012,260108.82661867968,2915,2052,1453,0
-1147.7329660445182,23.59914524141049,-28.76901791902359,227001.21839640374,315433.95770617813,262662.5982356302,2915,2060,1451,0
-1133.6797016592122,35.255545641492795,-22.00557459964651,229418.156166499,315752.2670097613,265499.96515719977,2880,2047,1451,0
-1120.4988682250512,46.381921012898,-15.29165174462741,231925.90544753804,315489.4782040176,268563.37682016904,2850,2053,1452,0
-1108.1288373115535,56.94456149029519,-9.149282558756227,234479.20998885998,314644.9485700289,271801.16439709556,2777,2058,1456,0
-1096.5176666836844,66.87235820518202,-4.0435471240769,237037.40692571632,313260.4618684905,275165.8082650508,2677,2072,1457,0
-1085.6108419580996,76.09219372338382,-0.31498696608023835,239565.15351908875,311418.05166115094,278613.21467939764,2625,2082,1455,0
-1075.3603962868283,84.557855313063,1.8767428751203028,242032.21964578432,309227.7577532346,282103.16393580445,2521,2088,1453,0
-1065.7423526832638,92.26540168293984,2.5733112943500522,244413.12625738513,306807.94353150186,285600.170285398,2428,2078,1451,0
-1056.7628982688616,99.24670465388576,1.9844514945678584,246686.97836963105,304267.21909943345,289073.76269090443,2250,2097,1457,0
-1048.4449813505944,105.54902569330372,0.41367677157908805,248837.37692865008,301694.0593908557,292497.884505182,2103,2084,1451,0
-1040.8076076690686,111.21745061252335,-1.8196207496230143,250852.23784780057,299152.6627134412,295849.84343153716,1938,2106,1455,0
-1033.8540720141218,116.28872872252619,-4.430646206210369,252723.4434979025,296682.6991859879,299109.3577207752,1806,2116,1456,0
-1027.571692774723,120.79365593805694,-7.19298529294223,254446.2983517177,294302.5595882106,302258.0305947618,1602,2132,1458,0
-1021.9357392350352,124.7622639035578,-9.95057304941801,256018.91547065112,292015.1834946521,305279.28775339376,1495,2141,1454,0
-1016.9121186351197,128.2272696660872,-12.622339965816924,257441.73452441336,289814.18959430465,308158.49377559224,1336,2128,1456,0
-1012.4582657357108,131.22393163426244,-15.195632447902652,258717.2090163659,287689.1132639431,310883.05836115306,1207,2144,1453,0
-1008.5236477695523,133.78760340682305,-17.707394882440617,259849.5633061048,285630.3208033902,313442.6285257132,1064,2128,1451,0
-1005.0515672654219,135.95112016171007,-20.220039305529507,260844.52010411298,283633.0299381173,315829.30969056796,942,2161,1460,0
-1001.9841074471867,137.7435096997398,-22.797794081378807,261708.93362467678,281699.11831990833,318037.7993159777,760,2160,1460,0
-999.2696293905207,139.19023544580423,-25.48393576488275,262450.36021046015,279836.80451400403,320065.47269449924,628,2179,1471,0
-996.8687092262073,140.31400127233417,-28.2846226285436,263076.7144499131,278059.0622882449,321912.3264584221,536,2169,1469,0
-994.7554467171494,141.13496128971804,-31.16774297898196,263596.13855467876,276381.0720735449,323580.66608148516,474,2182,1644,0
-992.9148764321086,141.66992809660695,-34.0756257523946,264017.0718694865,274816.86641292454,325074.63768055633,429,2198,1639,0
-991.3391112681861,141.93147221255515,-36.94169885551326,264348.38333627966,273376.4607051795,326399.7460751797,306,2205,1631,0
-990.0238016517696,141.92851567411648,-39.70368921111083,264599.4385397726,272064.72625726403,327562.4107336658,279,2227,1638,0
-988.9648723244158,141.66863123636148,-42.313056056780226,264780.06777977274,270881.746810647,328569.5730128586,218,2246,1641,0
-988.1560734901274,141.16015740155933,-44.74028159137268,264900.4383485149,269823.87307990465,329428.4077113783,153,2263,1652,0
-987.5883247381274,140.41225319288992,-46.97386004385016,264970.8064704133,268885.16313956236,330146.2234541777,140,2256,1650,0
-987.250531852912,139.4328908812285,-49.01388855010565,265001.164544816,268059.07131622726,330730.5543850782,158,2254,1668,0
-987.1310081892452,138.22655205262183,-50.86425242865589,265000.9159821591,267339.8611829579,331189.30900333676,110,2273,1676,0
-987.2193555750238,136.79359350078377,-52.52641783240816,264978.6795747289,266723.2020121429,331530.850319757,74,2291,1675,0
-987.5086865573828,135.13176399834504,-53.995340329608496,264942.1909658844,266206.0032673984,331763.98360752873,115,2218,1730,0
-987.9971859276238,133.23882749215414,-55.25774389837848,264898.26959523576,265785.8809727426,331897.84177807684,70,2306,1694,0
-988.6881292657648,131.115088059473,-56.29313305899341,264852.8653839573,265460.4705817857,331941.60556875786,46,2336,1687,1
-989.5886400265707,128.76509391495156,-57.07681796054842,264811.1616856676,265226.64149813825,331904.03317481163,66,2300,1711,1
-990.708014616272,126.19822569833623,-57.58396582181823,264777.65215678693,265079.86262876075,331792.92184516875,13,2312,1693,1
-992.0562433204979,123.42846252810276,-57.79381340106353,264756.16745512706,265013.9631583209,331614.5760121907,23,2319,1716,1
-993.6434080070676,120.47377900775807,-57.691234012446365,264749.97380459093,265021.21177342645,331373.2564322853,29,2320,1721,1
-995.4796198436799,117.35658931763274,-57.26473963928496,264761.8540641468,265092.54059661186,331070.8423880721,12,2311,1761,1
-997.573326121695,114.10808600694492,-56.50637026289683,264793.5994334885,265217.99110084045,330707.2304058532,20,2322,1731,1
-999.9275691926945,110.77629418440723,-55.41645826588782,264844.6601064411,265387.61493853334,330281.6848075897,11,2297,1784,1
-1002.5375697294756,107.43127374597968,-54.00790076427025,264910.7439128639,265592.7141671399,329794.4961489091,28,2306,1784,1
-1005.3939178810388,104.15903813214659,-52.30354017082592,264983.38089894294,265827.1150130922,329247.9630685471,0,2324,1798,1
-1008.4922565707633,101.04385396213542,-50.32648985912544,265050.6042418444,266088.27609007043,328646.33237485006,0,2268,1835,1
-1011.8441565128117,98.15019058028389,-48.08914425859855,265098.14316647203,266377.7878409776,327994.95694668253,0,2225,1878,1
-1015.482529186242,95.51537476330223,-45.58546147901346,265110.7215428902,266700.71220127196,327298.852456698,10,2234,1908,1
-1019.460356456872,93.15331241260128,-42.78746714018159,265073.44189516,267063.84212299524,326560.7833622915,1,2223,1929,1
-1023.8459562925547,91.0631106418306,-39.64673076890476,264972.94865678466,267473.79612006375,325779.6026098702,0,2189,1974,1
-1028.7182946118767,89.237776899898,-36.1048769739952,264798.02748792997,267935.70938352385,324949.5456014632,1,2151,2020,1
-1034.164069494519,87.67118709242224,-32.11813414101313,264539.77538362605,268452.45876796753,324060.327414011,1,2094,1895,1
-1040.2747706293387,86.36242649850496,-27.68539465146654,264191.73800103803,269024.18517488055,323097.6520713468,0,2095,1967,1
-1047.139224358785,85.31799966283474,-22.858386572461047,263750.44853733387,269648.3341951643,322044.06289545377,0,2106,2111,1
-1054.832529250543,84.55320779847827,-17.73186753300438,263216.33783517225,270320.7580354687,320880.0260873465,1,2025,2008,1
-1063.4093566222994,84.09207633998457,-12.425464392512966,262594.2976191304,271037.6865531981,319584.9398103597,0,1975,2051,1
-1072.9054428299348,83.96493242244411,-7.062441753031431,261893.35955513027,271797.5663131007,318138.1040043127,10,1924,2108,1
-1083.3427365135544,84.20588986738872,-1.751708197102333,261125.77681428628,272602.1465124452,316519.9047535953,1,1859,2217,1
-1094.733734597059,84.85352874496307,3.4202973081694834,260306.09547028804,273456.44672988285,314712.991697874,9,1791,2238,1
-1107.0856980194103,85.95330290778017,8.389615047018001,259450.5486661948,274367.4880500606,312703.12106221967,0,1723,2270,1
-1120.4052661771877,87.55736962506171,13.111816112404885,258576.90875128255,275342.50824477396,310479.6601948764,0,1727,2320,1
-1134.70155363326,89.72110868052553,17.55862672862871,257704.6086586854,276387.362334679,308035.5954255389,17,1709,2343,1
-1149.987285554148,92.4988771248863,21.713117776206282,256854.7009102207,277505.2181741071,305366.8714312719,0,1576,2433,1
-1166.2779965769207,95.94146494114484,25.56285027081885,256049.56687432085,278695.72674115,302471.44929330196,13,1457,2494,1
-1183.588754970413,100.0958962337253,29.093417660233072,255312.60676074994,279954.9792725834,299348.38576499815,14,1453,2542,1
-1201.9296139785433,105.00644054350579,32.284503501649574,254668.02487283686,281276.2037843831,295996.8251256654,8,1388,2580,1
-1221.3015949019252,110.71559246876805,35.1092880452684,254140.69812634244,282650.75033133867,292415.17518530856,9,1239,2667,1
-1241.6933608431862,117.26527775234746,37.53815864352563,253755.98300735184,284069.1103170992,288600.77483185055,18,1153,2716,1
-1263.0778583348153,124.69918694555771,39.54611351376569,253539.26469026678,285522.01680747705,284549.88602129987,0,1079,2738,1
-1285.4089296375655,133.06526352700348,41.120249811117105,253515.31768801948,287001.30889182736,280258.00822474086,0,993,2799,1
-1308.6192673800376,142.41606099634996,42.26491744871175,253707.56877354367,288500.152464861,275720.707712756,0,866,2825,1
-1332.6205650505076,152.80592780695096,43.0057055793195,254137.2049481957,290012.6988216094,270934.8552526001,0,701,2859,1
-1357.3043114182337,164.28587936182726,43.39185875823201,254822.25595739798,291533.4318256335,265899.90336947335,8,671,2911,1
-1382.5418286517158,176.89783279105518,43.49285985984969,255776.69277872384,293056.31598135084,260618.80729159346,0,552,2948,1
-1408.1833096250687,190.66968020006794,43.38724178276991,257009.39073453142,294573.87459970743,255098.45908411063,0,541,2967,1
-1434.0550922226012,205.61218260425272,43.14854081528424,258523.19430308425,296076.5314691865,249349.93510685005,4,452,2989,1
-1459.9553368957493,221.7175584216217,42.83387855826616,260314.5672805014,297552.62466719345,243388.8322111185,0,361,3004,1
-1485.6494303221054,238.958465793638,42.47638951616824,262373.9075908469,298989.1523950367,237235.67224761652,0,295,3026,1
-1510.8661495587712,257.2858677357693,42.08250037285576,264686.150010842,300372.78654365975,230916.4026805315,4,242,3041,1
-1535.295253174168,276.6249695726523,41.63472351543902,267231.3315066685,301690.74130960484,224463.00406652063,11,233,3024,1
-1558.586129315501,296.8696679928348,41.09767388793305,269985.0598034072,302931.4708267763,217914.04670834818,0,182,3050,1
-1580.3475940845647,317.87680013981065,40.4257057902613,272918.93790207274,304085.22822474677,211314.93491859484,7,187,3042,1
-1600.149986334479,339.4613138477572,39.57243074438896,276000.9874492022,305144.48594307,204717.70948994358,7,228,3054,1
-1617.529240832391,361.3931532852558,38.5005588617043,279195.92239874555,306104.1647639872,198180.83067851103,6,270,3022,1
-1631.995200140474,383.3968772572853,37.191229188875326,282465.20200596034,306961.6249032611,191769.2327965867,8,307,2971,1
-1643.0483067164478,405.1536980245697,35.65413459643512,285767.03280026716,307716.5113759635,185554.3455064226,11,339,2963,1
-1650.200708672433,426.30504891675145,33.936168310688856,289056.29148562776,308370.48862478696,179614.01190456442,17,367,2913,1
-1652.99610058679,446.46434862060295,32.12244427815382,292284.4342235403,308926.693237167,174032.16275933542,13,457,2833,1
-1651.028133993316,465.24486930638693,30.32577209312716,295399.7946122332,309388.8147444587,168897.857544402,31,541,2765,1
-1643.9548426140884,482.2953141995975,28.669455778964757,298348.5648753365,309760.1129774859,164304.00357565974,17,574,2743,1
-1631.5075613442023,497.33098771869095,27.273247215208432,301077.1187828705,310042.80659754144,160345.86572279417,13,656,2679,1
-1613.4979589380823,510.15901021434166,26.2462447074531,303536.0036440065,310238.01818775706,157118.92874611123,10,777,2565,1
-1589.823308128643,520.693632763646,25.68673858464803,305683.9987156145,310346.21029248537,154716.63444504907,14,875,2464,1
-1560.4648386506724,528.9548909032312,25.69133665103314,307490.7018401233,310367.93801463273,153228.49491354925,21,1069,2315,1
-1525.4772006288256,535.0515930916335,26.37202211091388,308937.84239024663,310304.6829891504,152738.17457812486,19,1265,2133,2
-1484.978160286713,539.1550406001146,27.870906873344246,310019.53490519436,310159.38784085633,153321.76359925736,1,1507,1922,2
-1439.1524938020214,541.46450255576,30.360659575358476,310741.22732214455,309936.27049527445,155046.67404695845,5,1577,1840,2
-1388.2725169437074,542.1646407275402,34.027900361310685,311117.6525639644,309639.8003782777,157970.74652431157,0,1719,1707,2
-1332.7231065200951,541.3893444672549,39.04869756842784,311170.74425840797,309273.1683603919,162141.1082064498,1,1763,1675,2
-1273.0169218409912,539.2067733441877,45.565192227113315,310927.9683854702,308836.367220278,167592.41176818262,0,1792,1634,2
-1209.795578647781,535.623465190114,53.6651626247706,310420.6155668809,308323.75846346794,174344.19320991627,0,1882,1563,2
-1143.8223418252871,530.5991140136069,63.36737896265513,309681.869549139,307721.76467132167,182397.94076864276,1,1939,1514,2
-1075.9651694166582,524.0705957380097,74.61551544786842,308744.6423723984,307007.4823186542,191734.88782842696,0,1984,1474,2
-1007.1629714410824,515.9852478234045,87.27745702969666,307639.1817860382,306148.2932870083,202314.9861104729,0,2008,1460,2
-938.3831344532189,506.3331044449133,101.14780400131121,306391.471880205,305102.6086604313,214077.05178613914,0,2013,1451,2
-870.5770231700285,495.16857662624466,115.95902438729057,305023.6999908131,303822.64576039754,226940.8551924303,0,2013,1452,2
-804.629093242402,482.623277338801,131.40488473728934,303556.632208365,302259.6251439594,240811.7016701266,0,2009,1452,2
-741.3142232860513,468.911089690798,147.16690989046052,302012.2513646342,300369.6084883817,255585.44988706466,0,2012,1453,2
-681.2829080060817,454.320857600155,162.93604930316323,300415.0090638072,298118.2003581657,271152.4889160336,2,2007,1455,2
-625.071149249825,439.19574357861063,178.4325075109089,298791.4102516652,295484.1286528624,287401.54988918966,0,2008,1453,2
-573.1211825268305,423.9042677859613,193.42119225918384,297168.78659448575,292461.40871368855,304222.65021180926,0,2010,1451,2
-525.8026940054161,408.7974958992967,207.71333353876918,295573.87627760356,289058.9031199448,321508.3748135797,0,2010,1454,2
-483.43408291550367,394.14582195292394,221.15222188943017,294031.1850427007,285297.0437565316,339154.80102549493,0,2010,1452,2
-446.3028712641371,380.0831770269617,233.59369735311265,292561.67395013844,281203.58794187225,357062.2228344058,0,2009,1451,2
-414.67350329240554,366.5987472145835,244.89578939453426,291183.0310942426,276810.56335616036,375135.2779939239,0,2011,1451,2
-388.77925927998405,353.57540998632163,254.91941401106516,289911.863180371,272152.7644250677,393283.1714752179,0,2011,1450,2
-368.81042382529836,340.83953107412015,263.5351782607766,288766.65775681904,267267.33192966797,411419.64837734576,0,2010,1453,2
-354.90570166346726,328.2003201959203,270.638931811015,287770.2145078777,262193.5744141578,429462.3007251563,0,2010,1453,2
-347.1454890571457,315.4818710833035,276.17266438775476,286950.899931225,256972.1821517397,447332.0614079361,0,2011,1454,2
-345.5486184186494,302.5472672659131,280.13616356215147,286342.4615499738,251644.16853197175,464952.950717426,0,2011,1452,2
-350.07506273180326,289.3058057760961,282.5848387918768,285982.33260220167,246249.95455349266,482252.0729965148,0,2010,1453,2
-360.6324668561911,275.7036618497772,283.6212490921154,285908.7193019339,240828.40617550074,499160.52442340436,0,2012,1452,2
-377.08220285086384,261.70802881386817,283.386146886381,286157.4206853576,235416.20484966956,515614.3578037731,0,2010,1454,2
-399.243830523772,247.29174798901613,282.04860201954017,286758.85726013494,230048.00964566632,531554.7071986678,0,2010,1452,2
-426.89983988182894,232.41957520845173,279.7936105180995,287734.9831843992,224757.10161195803,546927.7315180189,0,2010,1451,2
-459.8001781283444,217.0394782488867,276.8107544162899,289096.60310572863,219576.15452590812,561684.3754372289,0,2010,1452,2
-497.66616552959925,201.08234727511626,273.28700688416956,290841.7714793223,214537.93666221757,575779.7286777636,0,2010,1452,2
-540.1955267148261,184.46750554757637,269.40146067685004,292954.9076974359,209675.71720717856,589172.6218284128,0,2010,1452,2
-587.0666018434329,167.10969709393638,265.3202937720772,295406.2604060017,205023.3967633279,601825.3404269929,0,2010,1452,2
-637.9397804405193,148.92569364361398,261.1913854913291,298151.9291765429,200615.26672873695,613703.192299226,0,2009,1452,2
-692.4583284651056,129.84023046948641,257.13771806831494,301134.5888513883,196485.1780449265,624774.3704189267,0,2009,1452,2
-750.2485340052142,109.79029766211158,253.2512328936639,304284.5859421963,192665.5419529061,635009.85422728,0,2008,1454,2
-810.9188865366331,88.72528567052366,249.58861513806843,307521.3562155095,189186.57544186246,644382.9848955679,0,2005,1454,2
-874.0607260609681,66.60196776216902,246.1679968453681,310755.44296865305,186075.6167849793,652869.0909541101,0,2010,1452,2
-939.249401698446,43.37750358947532,242.96637928345865,313890.6094158362,183356.6439251127,660445.1386443712,0,2008,1456,2
-1006.0456389114951,19.00237487976173,239.91912307087043,316825.7979651304,181050.27947517892,667089.2743325123,0,2008,1453,2
-1073.999669450473,-6.588062169471973,236.92299705936358,319457.54882044066,179174.09820738484,672780.5755718981,0,2007,1453,2
-1142.6545495282069,-33.480772351460175,233.84302707714406,321682.6292053442,177743.01681660098,677498.9189858115,0,2008,1453,2
-1211.54478615489,-61.786753124600374,230.5232730101837,323400.583978723,176769.6689219193,681224.7424160661,0,2009,1455,2
-1280.193261331569,-91.63755159917959,226.80168246508586,324516.70292606746,176264.59549190465,683938.8799904909,0,2010,1456,2
-1348.10849530982,-123.17774152363704,222.52476886236798,324944.9681176427,176236.12353132872,685622.4935547924,0,2010,1452,2
-1414.7842524168077,-156.5524761064484,217.55699295721456,324610.48427050805,176689.79324255497,686257.0771506889,0,1996,1465,3
-1479.7042053015628,-191.89102415606132,211.78478594780768,323451.8790917268,177627.2516016147,685824.7363065705,0,2014,1452,3
-1542.347896584135,-229.29054417299523,205.11643424965595,321423.57974545757,179044.95687604832,684308.740010234,0,2014,1455,3
-1602.1965415417328,-268.80130208193816,197.47693993247802,318497.695577657,180933.08185020983,681694.2317435775,0,2010,1452,3
-1658.7426650322984,-310.4104752507529,188.79823847428662,314665.91047500225,183274.62881664827,677969.1070361383,0,2002,1467,3
-1711.5001350897664,-354.02465425054254,179.00986476271908,309941.352649484,186044.79319325413,673124.9406881612,0,1989,1476,3
-1760.0113807457853,-399.45276056236287,168.03525045220627,304359.9537728132,189210.86315383855,667157.7921206814,0,1976,1483,3
-1803.8563554317977,-446.38954932940834,155.79349413105243,297981.1764263266,192732.83136544022,660068.9184569444,0,1962,1495,3
-1842.6633162375838,-494.4032071822356,142.20438481676334,290888.2002750497,196564.51963474025,651865.5748511907,0,2000,1464,3
-1876.1208250884981,-542.9357600972407,127.19796737187784,283187.0296915582,200655.45525593436,642561.9152980101,0,1988,1472,3
-1903.9939954068645,-591.3196234848826,110.7312095995683,275003.9315794305,204953.92342456226,632179.8570725733,0,1974,1485,3
-1926.1401494449865,-638.7998897695092,92.80760735490453,266481.95546499913,209410.2727930732,620749.974542097,0,1974,1484,3
-1942.5185933595421,-684.5551310088081,73.49278673800073,257776.6158144648,213979.63725581078,608312.2353157384,0,1969,1495,3
-1953.1976855766516,-727.7208520773207,52.925672553020085,249049.9398631057,218624.3542101597,594916.2010068654,0,1948,1503,3
-1958.3588449478175,-767.4129163380567,31.327349761115304,240464.53786452994,223315.59197320652,580621.0583765887,0,1958,1499,3
-1958.290374925127,-802.7471771887429,9.006168158276905,232178.96986396576,228033.39323962224,565495.5581139965,0,1946,1506,3
-1953.3694724590473,-832.8592110655351,-13.644451731427246,224343.12150828182,232765.42120408054,549617.3367153847,0,1958,1496,3
-1944.0417597340897,-856.9215144356468,-36.156474314807035,217093.83235611377,237505.02776028114,533072.2461366791,0,1952,1506,3
-1930.8036820294992,-874.1572101675011,-58.006343813259804,210551.36986699307,242248.8719758032,515954.1986969507,0,1952,1504,3
-1914.1807033124383,-883.8584045527446,-78.64181252484843,204815.66237246932,246994.29454556765,498364.91753962415,0,1968,1488,3
-1894.700472642595,-885.4116754368939,-97.50520568625599,199962.71645155075,251737.21041390477,480413.95612415683,0,1992,1471,3
-1872.8669697424712,-878.3334241231794,-114.04623713235432,196042.1242706013,256471.23800456803,462219.4342385014,0,1972,1483,3
-1849.1353588323047,-862.3169322422584,-127.73643537889961,193074.88579621603,261187.70289421492,443908.8397885109,0,1983,1476,3
-1823.892090892973,-837.2770850580873,-138.0954039273699,191051.41248849386,265875.1061854443,425619.8674431097,0,1981,1479,3
-1797.449664034145,-803.3859276166447,-144.73233286056137,189930.5492526624,270516.4443468389,407501.0341319729,0,1977,1482,3
-1770.0553974817046,-761.1092024094335,-147.40272630929283,189639.91715357488,275084.3408856449,389711.1173835446,0,1979,1476,3
-1741.906105491383,-711.2409896617976,-146.06331435069853,190077.8351857544,279536.50412404543,372417.8146203546,0,1982,1479,3
-1713.1619095630979,-654.9206166005342,-140.91004131068487,191118.37350907846,283814.5684675079,355795.1905612118,73,1996,1471,3
-1683.9559189603056,-593.6272995126525,-132.40118393989476,192620.5098393942,287846.9981322332,340018.30697080406,563,2009,1455,3
-1654.3974147953156,-529.1580986387384,-121.2605213605257,194438.6305590634,291554.2575431307,325256.4318361821,1433,2002,1464,3
-1624.5643989013804,-463.56955342367104,-108.43800764206546,196432.07409634136,294856.21417358436,311665.8030178834,2195,1997,1467,3
-1594.4893939974415,-399.02277784888594,-95.0163633611096,198474.64989464937,297684.70149154816,299379.77097427985,2525,2000,1464,3
-1564.1568340598603,-337.5195968347453,-82.1010379903773,200463.1082939009,300000.2380870299,288497.51931962656,2783,1985,1476,3
-1533.519093364879,-280.63281369472963,-70.72779549502583,202323.0407620849,301805.9961212464,279075.9793008008,2809,1986,1472,3
-1502.5276349377434,-229.35131100433824,-61.73666354654481,204014.73478578372,303153.04484354163,271127.15890172846,2881,1998,1463,3
-1471.1936633226358,-184.08838126758442,-55.576199972556985,205540.2162596283,304135.5320616731,264621.0088754919,2813,2001,1463,3
-1439.6651793266494,-144.813153497533,-52.15986314007233,206945.4134052441,304877.86492035235,259492.20233598255,2752,2000,1463,3
-1408.256327298,-111.2047416139609,-50.935803857735245,208308.64319218983,305514.57711136044,255647.76390608697,2782,2010,1456,3
-1377.4033364817008,-82.76943719778318,-51.1285755864005,209717.03850435003,306163.99778524804,252975.32778759312,2741,2006,1459,3
-1347.5864063362355,-58.916518011074636,-51.95145549412274,211245.3280176485,306905.42527397204,251352.96586627935,2688,2021,1453,3
-1319.2412267290374,-38.99997232685597,-52.69837841543707,212946.66023166876,307769.6397458821,250658.07980417385,2813,2029,1452,0
-1292.666519122179,-22.345712998344236,-52.77481461400558,214852.27957772926,308742.2306653237,250772.82864021463,2899,2033,1453,0
-1267.966646645566,-8.27618423676442,-51.72265432241661,216974.13072970792,309773.9890140655,251586.8977414542,2959,2058,1453,0
-1245.0554075512155,3.8671356901144875,-49.24633244127481,219307.47461281426,310791.8938504532,252998.99383278211,2997,2055,1451,0
-1223.708726445603,14.693259679760143,-45.229913504479555,221833.3813925058,311707.7206645472,254917.61203022496,2964,2059,1452,0
-1203.6509409555965,24.714887293834494,-39.734301061057415,224522.16882201802,312426.10844503524,257261.59550718614,2990,2054,1452,0
-1184.6430881984768,34.30139737996036,-32.97505177658435,227337.13434940128,312852.77680987347,259960.4199276398,2973,2058,1452,0
-1166.5329446257463,43.658937003398705,-25.2901012030674,230237.50901697893,312903.5629049853,262953.3610917707,2952,2072,1450,0
-1149.256851304808,52.846298436363334,-17.11014345226204,233180.93261035896,312515.7758539287,266187.1299156686,2944,2056,1455,0
-1132.8116709882627,61.812722569528866,-8.935732260760979,236125.65039251276,311658.84343459696,269612.86003269826,2886,2066,1455,0
-1117.2206829884847,70.4447066671165,-1.2937569347095503,239032.75067436922,310340.29946783016,273183.74385793187,2850,2065,1457,0
-1102.5049199436476,78.61935904662054,5.34954115758824,241868.61312354042,308606.02490607626,276854.01661673124,2749,2057,1453,0
-1088.6674414928095,86.25069092564681,10.683129803911907,244606.22152245496,306534.0489351998,280579.4357466064,2684,2047,1460,0
-1075.7005156391303,93.30976300641738,14.600119448166618,247224.64542672102,304223.53456123074,284318.5278860603,2581,2047,1458,0
-1063.6060139118151,99.81636026696268,17.182267532093242,249707.8602508906,301781.0041760517,288033.62552763283,2444,2045,1462,0
-1052.4022584210857,105.81367503615195,18.635487110993875,252043.8800795298,299304.70324260247,291691.4045730608,2276,2047,1465,0
-1042.1109472779262,111.34436431483944,19.218907627054914,254224.25963584197,296872.1107040378,295262.78977860423,2112,2047,1462,0
-1032.7418405865742,116.4409604166549,19.195497897899745,256243.69179329282,294535.31471384875,298722.23292260733,1975,2060,1459,0
-1024.2860611693677,121.12903371988557,18.797293214203286,258099.42630060518,292322.45681012777,302046.780230026,1766,2085,1456,0
-1016.716415552328,125.43461262286847,18.20075610686869,259790.51047737087,290241.5299508334,305215.3532764057,1589,2083,1457,0
-1009.9911760348307,129.38834410952444,17.51558395408451,261317.07392445538,288285.43951711745,308208.58057287586,1454,2092,1458,0
-1004.0576745076854,133.02359094126868,16.783566596012168,262679.82501940685,286438.46163546084,311009.2445548284,1251,2084,1458,0
-998.8540833120625,136.37080190649462,15.984913592426183,263879.7964801195,284682.6157087935,313602.88559522986,1171,2058,1463,0
-994.3114291120833,139.45173640283608,15.055535601186053,264918.3201928161,283002.55212963483,315978.2293305838,1047,2052,1490,0
-990.3582893123724,142.2753581326937,13.916393418541393,265797.16172581,281389.32984241075,318127.5434338473,899,2045,1484,0
-986.9270741388005,144.83630403299355,12.504228747230286,266518.67367522523,279842.7394632414,320046.8455922218,823,2040,1505,0
-983.9594323424407,147.1166629891825,10.792083470572633,267085.9473402204,278370.87385597464,321735.7787880606,756,2041,1499,0
-981.410620389423,149.0898068777664,8.797985524109235,267503.0859069653,276986.9818657435,323197.27495456015,570,2084,1498,0
-979.2524321586222,150.72353295020875,6.582970911191637,267775.594661333,275705.46772540937,324437.1530679753,441,2081,1508,0
-977.4721548147195,151.98213469124525,4.23874612261017,267910.8383251878,274538.5855640745,325463.58783600485,428,2080,1510,0
-976.0670215148616,152.82925528637816,1.8685000893986734,267918.4705763904,273494.07625552616,326286.3716587918,376,2054,1538,0
-975.037618210775,153.2319326626893,-0.43071786855738964,267810.54597898875,272574.1551739835,326916.11506354914,398,2067,1541,0
-974.3829634837539,153.16518747557143,-2.578491775184894,267601.2049707112,271776.0184570559,327363.65581996454,299,2102,1523,0
-974.0969405167798,152.61645107915191,-4.5161644357945026,267306.0235530581,271093.2951239851,327639.7984940742,339,2068,1540,0
-974.1663227690061,151.5878570240979,-6.208284678390994,266941.0912600749,270517.99217068707,327755.3221849833,265,2095,1523,1
-974.5718407115762,150.09455107078475,-7.639706051478592,266522.09786022763,270042.30455078953,327721.12101854297,189,2099,1551,1
-975.2919978212134,148.15967542356168,-8.808706341989383,266063.6624932272,269659.701886868,327548.3621247279,219,2082,1587,1
-976.3073770827508,145.80898309063423,-9.718729046770651,265578.8241722411,269365.3506180567,327248.6112096996,125,2075,1584,1
-977.6036750094077,143.0677554658392,-10.372309094746397,265078.7201340065,269156.0779252177,326833.8802499177,107,2085,1583,1
-979.1735473392521,139.960245531693,-10.768802605992123,264572.5729911636,269029.8897182727,326316.4795738645,82,2047,1615,1
-981.0176708954348,136.51044985107745,-10.905063595407723,264067.9093198797,268985.1122950162,325708.60215989215,59,2078,1620,1
-983.1444072500005,132.74370873678907,-10.777394263622003,263570.8439160385,269019.5164100466,325021.79028112366,56,2019,1660,1
-985.5679342085002,128.68924977399828,-10.383564475695334,263086.34326830297,269129.7686099343,324266.4719633245,90,2015,1691,1
-988.3059412898513,124.3831468874459,-9.724566318835805,262618.4303625038,269311.2255923406,323451.65130215866,37,2042,1669,1
-991.3778369155532,119.870550448459,-8.805970155083333,262170.2386036931,269558.0104486497,322584.8649951656,21,1959,1726,1
-994.8040527560356,115.20617640229068,-7.638466802369609,261743.86480312902,269863.3541989023,321672.4221343728,24,1941,1756,1
-998.6065750252196,110.45273678247707,-6.237447331518484,261340.136067716,270220.10381075216,320719.7152368012,28,1911,1765,1
-1002.8100289208413,105.67751425836911,-4.6218190449742025,260958.41313084096,270621.33366446965,319731.2946909715,32,1817,1848,1
-1007.4427357275438,100.94799137929336,-2.812201728533945,260596.47188439898,271061.0415550738,318710.5859739823,30,1778,1868,1
-1012.5375229967303,96.32862239067383,-0.8290224272725073,260250.52982369112,271534.7284910318,317659.46657441126,15,1787,1887,1
-1018.132388749106,91.87973756690118,1.3093883679526586,259915.52077418403,272039.6824353548,316577.87436210626,4,1759,1940,1
-1024.2712000205238,87.65749538171757,3.589667186492671,259585.6327376653,272575.0280491665,315463.395034674,0,1766,1935,1
-1031.003975753598,83.71405296827696,6.00684330647027,259254.91936951646,273141.6013153799,314310.9010971225,4,1693,2008,1
-1038.3863295996925,80.09778217299568,8.566113323343378,258917.77797225054,273741.5843413766,313112.3509398646,0,1613,2085,1
-1046.47814230129,76.85335935950422,11.281827505622969,258569.26738206134,274377.8969342128,311856.70577316685,0,1586,2144,1
-1055.3414518845927,74.02174536668906,14.174262590651296,258205.27396957713,275053.5582087355,310529.9965923477,0,1531,2198,1
-1065.0384326292096,71.64035396317465,17.263549085293892,257822.51927171936,275771.25592680817,309115.6628126171,0,1509,2251,1
-1075.631779147507,69.7441630872712,20.55904918111168,257418.4881164834,276533.1485235946,307595.17538253946,0,1462,2324,1
-1087.1867592962183,68.36738589270712,24.045427136282445,256991.47007290588,277340.7366900166,305948.8072489524,10,1439,2343,1
-1099.7690987600033,67.54410083045465,27.67173045528775,256541.06528235992,278194.62692096096,304156.4751504266,2,1352,2431,1
-1113.4357517164976,67.30877048754843,31.354022190659858,256069.35437504994,279094.2809133516,302198.6791646024,10,1286,2456,1
-1128.2248499501366,67.69767265624019,34.99142773759317,255582.1474168312,280038.10731072124,300057.35657302156,10,1283,2527,1
-1144.1539628739533,68.74905395505813,38.47930655009845,255089.3404137859,281024.0968979219,297716.39334264194,13,1183,2526,1
-1161.2268746760603,70.50245338568766,41.712647698429706,254604.29349699995,282050.6053326139,295161.89729636407,6,1212,2591,1
-1179.440413275927,72.9998250201147,44.58680663064553,254143.07848514582,283116.5870137528,292382.47961687366,11,1097,2641,1
-1198.7864565412906,76.28705894083518,46.99913982151714,253724.25890537119,284221.1473436587,289369.4544129852,0,986,2681,1
-1219.2511644998078,80.41366897926422,48.852215530121356,253369.17260003244,285362.8328011469,286116.7734316533,1,965,2697,1
-1240.8130994028522,85.4313068253427,50.0589302180968,253102.28696638485,286539.0869005651,282620.8371457979,6,920,2744,1
-1263.4395942129304,91.39209611539506,50.54794446439754,252951.1594723951,287746.1087605847,278880.25239839463,0,837,2795,1
-1287.0815485315493,98.34642754101647,50.26845239809113,252945.8735755033,288979.02112042235,274895.43806542095,17,744,2852,1
-1311.6678911612894,106.34008356390424,49.193536338367515,253118.25817627084,290232.0283734495,270668.3300114001,0,701,2853,1
-1337.1004834931557,115.41159259299083,47.321595057085446,253501.03186935637,291498.42977742135,266202.4280328254,0,612,2907,1
-1363.2496133621878,125.59032520864311,44.6763064476117,254126.6933182386,292770.5954306834,261503.07706990867,0,577,2929,1
-1389.950783631546,136.895324385108,41.3048839740467,255026.28671942145,294039.9615011325,256577.97530690578,0,559,2934,1
-1417.0034662274747,149.33468950939098,37.2747558896337,256228.30862978968,295297.0294746522,251437.95667841053,0,463,2955,1
-1444.1708127777274,162.90476049015024,32.67025056548413,257757.7172940551,296531.36681284785,246097.88206682727,0,358,3009,1
-1471.179829341881,177.58861836334518,27.58885883275527,259634.90569842502,297731.6002911201,240577.35166388217,0,323,3012,1
-1497.7226282173676,193.35406398779705,22.135221604201558,261874.59234989004,298885.41150838125,234901.0857665818,0,243,3037,1
-1523.45787804517,210.15130625665435,16.41379981558797,264484.78856333107,299979.5379153609,229099.16843726757,0,170,3052,1
-1548.0119155766301,227.91110327538505,10.521102012747273,267466.08054871636,300999.86913844175,223207.26116064246,1,161,3057,1
-1570.9792574102796,246.54398319012927,4.536939320829016,270811.2645001179,301931.77731145476,217266.65445728975,0,93,3077,1
-1591.9209048716518,265.9396224645712,-1.4822194542712084,274505.23428840673,302760.61577874725,211324.33418056494,0,91,3101,1
-1610.3625773409285,285.96551726937514,-7.502855644514988,278525.1476509578,303472.43239691027,205433.14781225697,2,104,3087,1
-1625.7979751313646,306.46545370334206,-13.50634100151201,282840.8631052301,304055.1165014725,199651.7835293349,2,92,3083,1
-1637.6981772127453,327.2586755720567,-19.476940176652192,287415.20850659435,304499.7839229119,194044.64892064146,0,133,3067,1
-1645.528365599809,348.1420055793711,-25.388544763751568,292203.6680905544,304802.153197897,188681.7623826605,2,162,3042,1
-1648.772777763925,368.89625699828485,-31.191482433713574,297153.58922481415,304963.8723468852,183638.4196399074,5,235,2978,1
-1646.9598192619621,389.29273485448647,-36.804642632856485,302203.2654521306,304993.29074919544,178994.8022017279,3,319,2919,1
-1639.680335668068,409.09520067918334,-42.117776560414754,307281.6632125176,304905.0054138059,174835.65014832147,10,441,2815,1
-1626.6021014776309,428.06050902909766,-47.00100316632374,312309.5692282578,304718.3345169298,171249.64078160084,0,563,2706,1
-1607.4852574935023,445.9484887899219,-51.317139317454135,317201.991388268,304455.7812135306,168328.45481529518,8,728,2584,1
-1582.199877355975,462.54631459065536,-54.93646562316657,321872.1316337858,304142.4157254017,166165.3226083512,11,855,2480,1
-1550.7416429482728,477.6975774367436,-57.74881496827719,326237.5586880531,303806.1229179277,164852.58348623334,9,989,2375,1
-1513.2378767594917,491.3252398681866,-59.6618451674243,330226.7320116956,303478.12892984215,164478.95042291246,18,1188,2187,2
-1469.9401026924763,503.4457087237131,-60.58079377740647,333784.0351438179,303193.24721826776,165127.3335352448,14,1340,2049,2
-1421.2086913796159,514.1684044170963,-60.37905463346158,336873.71065745736,302989.41608350456,166873.09561128952,2,1565,1869,2
-1367.4976505288714,523.671425314926,-58.87871674083172,339482.1541840865,302906.31035196286,169782.69864550978,4,1702,1734,2
-1309.3431930432055,532.1534068709539,-55.85721313318916,341617.0973284681,302982.4588437848,173912.55974116264,0,1745,1687,2
-1247.3593872853153,539.7802982473754,-51.07774752733861,343303.99733325245,303250.57997398864,179307.41115614076,0,1839,1618,2
-1182.2411365570488,546.649858450391,-44.323114043289806,344581.4389850237,303732.6718747453,185997.9518128919,0,1891,1563,2
-1114.7669794943713,552.7807882879874,-35.41962325600831,345496.1114665337,304436.2655491861,193997.97655880408,0,1952,1494,2
-1045.7956985574567,558.120922610371,-24.255007332867198,346096.77256722254,305351.55349582824,203301.259904737,0,1979,1480,2
-976.257989280158,562.5659769621195,-10.79295008270846,346428.5178416843,306449.5818357632,213879.1367162715,0,2009,1458,2
-907.1371837101095,565.9842927145526,4.91956438347149,346529.2243004811,307682.73466847464,225680.23683278228,0,2014,1456,2
-839.4297273306404,568.2456190330707,22.75349645092981,346428.0820426675,308987.8698181669,238632.72042472134,0,2013,1452,2
-774.0990857851401,569.2462188908953,42.504493316534756,346145.6613824805,310290.93485267117,252647.34128265298,0,2010,1454,2
-712.0399016541893,568.9251835849918,63.90204986628447,345695.55491506617,311512.7025628393,267620.52701609844,0,2010,1453,2
-654.0494275635295,567.2736228752276,86.62054186102269,345087.35405357595,312576.0628793736,283438.2291930531,0,2011,1455,2
-600.8067298081064,564.3331148283875,110.29055492973164,344329.83131670946,313412.8859358376,299979.57209003443,0,2020,1454,2
-552.8660805416253,560.1741265938973,134.5117024453059,343433.4377855282,313968.3321133374,317119.7550199879,0,2014,1456,2
-510.6650363789456,554.8559658401767,158.87000881156385,342412.15832364187,314203.18475909386,334733.57575639954,0,2013,1453,2
-474.544366183407,548.3901136424455,182.95509582936782,341284.6947195004,314094.92390263645,352698.75449574203,0,2017,1453,2
-444.7711508688653,540.7289656769675,206.3770447758842,340075.1130179728,313637.4656103938,370897.78319191805,0,2013,1453,2
-421.55413597061147,531.7804891888504,228.79287340681415,338813.6034402447,312839.86117182736,389219.1727141632,0,2010,1454,2
-405.0471414315132,521.4329135374052,249.94115562942355,337537.37907593197,311724.46550365794,407558.0003167419,0,2010,1451,2
-395.3437366592342,509.57497285274803,269.673166419883,336290.6755008512,310324.1686770776,425815.33210926957,0,2012,1452,2
-392.46969490691947,496.1085899292354,287.97075153279883,335123.0065042352,308677.9780843439,443897.50666078675,0,2010,1451,2
-396.37833511057306,480.95647372123364,304.94247773261634,334086.2881596457,306825.9878980784,461715.5081353432,0,2012,1452,2
-406.9491879450532,464.0661500223296,320.7958455423147,333231.7261564721,304804.8478344953,479184.44722748676,0,2010,1452,2
-423.98801490793807,445.4105485509566,335.79361682222174,332606.6444340866,302643.5999136736,496223.8025112111,0,2008,1454,2
-447.2277778372811,424.9858805380884,350.211607619844,332251.8370290773,300360.75204340986,512757.83965440415,0,2009,1451,2
-476.33171151769056,402.80983839115623,364.3090194428031,332199.7680875257,297963.7801010095,528715.6945570387,0,2015,1455,2
-510.8984491456711,378.9223809061873,378.30671473043105,332472.98476678703,295450.65065110486,544031.7272241173,0,2008,1452,2
-550.466929447838,353.38931435250913,392.3709334392326,333082.61626527086,292812.2523194697,558645.7583400188,0,2009,1453,2
-594.5227372222193,326.30708077625826,406.6052566903015,334027.15956676286,290035.3930801896,572502.854011596,0,2008,1452,2
-642.5092686781308,297.8055661046424,421.04809186721155,335291.30485719175,287106.46115467633,585553.4487175377,0,2009,1454,2
-693.8402293597039,268.0467784986913,435.6719355545157,336844.8874905229,284014.94062722696,597753.6996455211,0,2006,1453,2
-747.9130068805946,237.21650437487196,450.3856244208079,338642.50049087184,280755.9692522183,609065.8292248213,0,2008,1453,2
-804.126965123898,205.50751599957863,465.04026245296666,340623.93902610283,277332.1913244231,619458.9459496471,0,2009,1452,2
-861.9009902898053,173.1011202249125,479.43572417367494,342715.2255845367,273755.03857556765,628909.8047297037,0,2009,1456,2
-920.6857969200105,140.15107881468109,493.3286218314537,344830.5189327381,270045.0605346753,637402.7844809607,0,2008,1452,2
-979.9753474672459,106.76596751884696,506.44563414258454,346875.3521638191,266231.31640685693,644929.4084320184,0,2008,1452,2
-1039.3156677714387,72.99311565991923,518.4996501384246,348750.34750921116,262350.3800450633,651487.504937886,0,2010,1451,2
-1098.307752108114,38.81109290827651,529.2057058360558,350354.9568093495,258444.8588814067,657079.7506166913,0,2008,1452,2
-1156.6072117283843,4.130814237523756,538.2967333619497,351591.9134135467,254560.81613475215,661711.754803246,0,2010,1452,2
-1213.9194002688105,-31.195910557778884,545.5342820986923,352371.7212690074,250744.73358624225,665390.1341113637,0,2009,1454,2
-1269.986542664264,-67.35933378736422,550.7101312107932,352616.3694062313,247040.8389199785,668120.941839536,0,2002,1459,2
-1324.570439549179,-104.5679704512046,553.6425393701193,352262.7788173246,243488.66870398636,669908.5837737443,0,2000,1459,2
-1377.4374443561774,-143.0248720105773,554.1717685553052,351265.58245657734,240121.33175248132,670755.2379224781,0,2002,1460,3
-1428.3488716156055,-182.90755920243677,552.1553765041921,349598.3259465749,236965.06363197317,670660.7709969388,0,2005,1460,3
-1477.0568205929783,-224.34874781532608,547.463433025495,347253.41366422095,234039.64380550015,669623.0652184648,0,2004,1457,3
-1523.3036317662015,-267.41728258378873,539.9761276965048,344241.5272044777,231359.20661421074,667638.5593483496,0,1996,1467,3
-1566.8252836609163,-312.100872689051,529.58655483463,340590.4488187941,228933.50059687268,664702.888829396,0,1996,1467,3
-1607.3603645814883,-358.29120501340265,516.2098256478065,336342.99179171165,226769.61522133058,660811.6679037142,0,1997,1462,3
-1644.6611673354712,-405.77450508589044,499.79609298325886,331554.5999191622,224873.76999545973,655961.3815312076,0,2000,1463,3
-1678.5056230189546,-454.23348715376216,480.3441184549242,326290.7341543482,223252.83742128537,650150.3008141689,0,1994,1470,3
-1708.712629083638,-503.26160914075956,457.91449421905503,320623.4165422653,221915.61424132535,643379.4359300846,0,1989,1469,3
-1735.1542845681015,-552.3796316159552,432.6410456351461,314627.7070579153,220873.65944251043,635653.5610188992,0,1985,1474,3
-1757.755846068186,-601.0469352722165,404.73781684742795,308378.83934372186,220141.32008176995,626982.1965979398,0,1993,1467,3
-1776.4851722070662,-648.6703892182705,374.5004585587431,301949.376178349,219734.89819591824,617380.4485871213,0,1992,1471,3
-1791.3408708771688,-694.6114605916684,342.3023200722678,295406.77158590517,219671.370271926,606869.8906443288,0,1995,1467,3
-1802.347551296786,-738.1933919763139,308.58290683677075,288812.1349098267,219966.81895439845,595479.5040450642,0,1990,1471,3
-1809.5600826963885,-778.715249544874,273.8264024553857,282219.85830626596,220634.4186298764,583246.4551021638,0,1989,1473,3
-1813.071565891209,-815.4711379229145,238.53796816091398,275678.01190012344,221682.38259792194,570216.9004149144,0,1993,1471,3
-1813.0196367930832,-847.7706333165333,203.22425162739637,269229.8050695832,223112.24106146517,556446.6781068719,0,1984,1475,3
-1809.5898094430977,-874.960945375914,168.37435763281934,262915.8220301139,224917.22931721143,542001.267585666,0,1992,1471,3
-1803.0139009425752,-896.4437508969856,134.4432892944339,256776.3224378819,227080.92163192565,526955.3319853153,0,1994,1467,3
-1793.5598037967638,-911.681683242529,101.84372765737717,250852.99104903737,229576.65358482726,511392.1118551992,0,1988,1473,3
-1781.5162252546143,-920.2028381876463,70.94490174128974,245189.84063862613,232367.96017287252,495402.36016761226,0,1990,1471,3
-1767.1816822899475,-921.6098501409211,42.07479262764201,239833.16079652918,235409.78347325826,479083.6117883604,0,1992,1475,3
-1750.8560315266657,-915.5946696786611,15.519581328818361,234829.97513993384,238650.37064704284,462540.131624056,0,1994,1469,3
-1732.8259299233403,-901.9606788608945,-8.484361789177264,230224.80035773927,242033.82934747948,445882.5569360893,0,1988,1472,3
-1713.3492507509493,-880.6499990260883,-29.759245843751263,226056.28853236174,245502.55666971667,429227.4807331106,0,1994,1470,3
-1692.6484356682702,-851.7761909037326,-48.18819364951742,222354.98572482335,248999.29868558634,412697.36332663184,0,1995,1469,3
-1670.9075474539297,-815.662864660674,-63.71802009378937,219141.42124479995,252469.3631422332,396419.9322621791,35,1994,1471,3
-1648.2663359224628,-772.8762834259601,-76.37103394848546,216424.12510793467,255862.18416151727,380527.1842773204,61,1998,1464,3
-1624.8188153303504,-724.2430652006461,-86.26785457924143,214198.01674107916,259130.99809795828,365153.87158929923,286,2006,1460,3
-1600.6228699202823,-670.8601427002764,-93.66039292448929,212443.3204755633,262231.19271346374,350434.3974540799,1227,2006,1459,3
-1575.7148153403393,-614.0992127321756,-98.95827330987629,211125.46913045284,265119.2313655984,336499.0612301611,2244,2005,1459,3
-1550.1184598215525,-555.5660941529916,-102.72096758983548,210196.98342269895,267754.98510539986,323470.2120790517,2807,2008,1456,3
-1523.8444928886981,-496.96289577413626,-105.61452388952277,209601.67739186078,270109.58724763466,311456.96008685936,2943,2012,1451,3
-1496.889139341618,-439.8719562315876,-108.35228015988629,209280.74366505415,272176.7481571936,300549.22089664213,3027,2010,1456,3
-1469.2515282282889,-385.5263439871507,-111.57887584760121,209182.6761226681,273984.1105565391,290811.9827453585,2657,2013,1452,3
-1440.978089322603,-334.6649200433889,-115.66126198638288,209277.14996314285,275599.83592087263,282279.9939879839,2930,2015,1455,3
-1412.214627770908,-287.58157163456144,-120.53508685821853,209563.45232246644,277126.3985014181,274956.18239335023,2658,2020,1456,3
-1383.235685414146,-244.30530507488754,-125.75843557907932,210065.67038197897,278681.9390122909,268815.05581237096,2844,2018,1453,3
-1354.4300425076576,-204.74014526460957,-130.6920182979579,210818.492716736,280377.5262801406,263808.0792861168,2738,2019,1455,3
-1326.2439358457214,-168.73041508467648,-134.67129901250482,211851.90644637553,282295.4960684022,259870.25895121513,2646,2023,1454,3
-1299.1110336530105,-136.09522514923083,-137.11784350246245,213181.95447842733,284474.6299318236,256927.66998691877,2659,2036,1457,3
-1273.3909541424803,-106.63560396297528,-137.5847421693023,214809.5165206972,286906.9008004258,254903.30119185188,2708,2046,1457,3
-1249.3190126215447,-80.11406549306741,-135.77262710980955,216722.8963561748,289542.5168642768,253719.9540954911,2772,2034,1456,3
-1226.9803522329296,-56.23240289966685,-131.54648565859546,218900.11269964906,292296.83583525283,253300.941130089,2814,2054,1455,0
-1206.3242211953839,-34.63973074183052,-124.95107025522607,221310.4228929925,295056.9528549486,253569.93660305627,2820,2045,1453,0
-1187.2153110670843,-14.978362381742027,-116.2091883432467,223916.4795653521,297690.935862617,254451.51319381114,2782,2060,1452,0
-1169.4979034673338,3.0595835535857727,-105.69722681033959,226677.0331148111,300061.02131831547,255872.722086494,2699,2088,1450,0
-1153.0404632910945,19.698125069587675,-93.91723740843845,229548.79588921758,302036.8291342156,257764.51000251557,2644,2100,1455,0
-1137.7469581532391,35.0751489912061,-81.47466249167788,232487.97104460068,303506.6290763172,260061.86051889014,2569,2096,1453,0
-1123.5443155799098,49.25934172099493,-69.04431280840666,235452.96041330587,304388.5047559458,262702.8909356636,2476,2123,1459,0
-1110.362626827159,62.27078463098779,-57.31742954321294,238407.5089053876,304640.2002575007,265627.8052547985,2382,2120,1458,0
-1098.1203110044503,74.10383165707236,-46.92780411444326,241322.22419354125,304264.60788138147,268778.40820321377,2268,2146,1467,0
-1086.7200528028632,84.75734954965239,-38.35352228106389,244173.81980874133,303310.31346205954,272098.466316369,2134,2118,1463,0
-1076.0603779699968,94.26195691723123,-31.831866031965607,246942.96959595443,301866.870097161,275534.70645252685,1847,2151,1463,0
-1066.0623506413112,102.68852921396643,-27.344711837411044,249612.13893246563,300052.1518943081,279038.1994356998,1678,2163,1470,0
-1056.6933919874184,110.13773461636833,-24.679623855034396,252164.40328977315,297991.72306556447,282565.76592614903,1554,2167,1472,0
-1047.967604577881,116.72168486852816,-23.516369808180094,254583.5244169897,295798.78686792497,286080.491989194,1429,2187,1634,0
-1039.9242962152966,122.54690540464759,-23.497769735188832,256855.02728449262,293562.6476239368,289550.82728428143,1244,2170,1490,0
-1032.6014769092494,127.70269909766812,-24.282890345428484,258967.63479447205,291344.9271601784,292948.8722402399,1051,2172,1506,0
-1026.018929043205,132.25770680038733,-25.585025358979617,260914.1202114111,289180.8496914591,296248.8683311316,1078,2194,1634,0
-1020.174432224352,136.26494044133216,-27.192817204629275,262691.21857903054,287083.5541207361,299426.41909591155,799,2219,1649,0
-1015.045976733729,139.7696908951132,-28.97862221551413,264299.2101364463,285049.7955931566,302458.48920444684,787,2177,1668,0
-1010.5934193851484,142.81353779712643,-30.8939227260182,265741.68392623554,283066.95416145615,305324.0138976264,647,2192,1663,0
-1006.7593721318966,145.43430391072775,-32.95400943304543,267025.2693161407,281120.01234454184,308004.6101304246,584,2211,1662,0
-1003.4729063557612,147.6665370176784,-35.21623001695838,268158.92872202425,279197.04749664833,310485.068433293,327,2217,1670,0
-1000.6578518685551,149.54383652955204,-37.750571437308544,269152.8118478618,277293.704055906,312753.78305058106,273,2233,1687,0
-998.2422108232744,151.10042001865477,-40.6085509301703,270017.086408353,275416.22745028406,314803.05071362085,141,2180,1720,0
-996.1650470867614,152.36952596228892,-43.800698944875826,270760.99557055574,273581.5288193151,316629.03273023426,243,2155,1739,0
-994.3808925325967,153.37867231685087,-47.28519577424848,271392.12292850914,271814.17450419033,318231.49006753636,122,2178,1732,0
-992.861789933774,154.14445517382396,-50.96846408268727,271916.03343736526,270142.06533228053,319613.4131399377,100,2222,1720,0
-991.5955227508647,154.66974706028253,-54.72006901827992,272336.6052255895,268592.1871066676,320780.4863775596,103,2159,1757,0
-990.580185254851,154.9437869622658,-58.39827621444622,272657.0142825505,267186.63527459686,321740.3870052527,54,2169,1774,0
-989.8182422178065,154.94421094193504,-61.8736685810945,272880.81399620575,265939.87457430124,322502.1073921773,51,2194,1758,0
-989.312596043735,154.64089156220035,-65.04210775443015,273012.64933016925,264858.3179096022,323075.4472101639,28,2209,1762,0
-989.0641926744378,154.0016708222269,-67.82971723988555,273058.6319655443,263941.7373782556,323470.6423364947,59,2226,1780,0
-989.0705500855314,152.99817175905156,-70.19320231681351,273026.447061834,263185.2883870167,323698.1151079439,25,2156,1849,0
-989.325744822892,151.60979397276392,-72.11443811690788,272925.0919325117,262581.5539724877,323768.3901877632,38,2193,1835,1
-989.8218437252316,149.82589872562687,-73.58969718893789,272764.23493639345,262122.5773608057,323692.15178654564,0,2182,1842,1
-990.5510322548437,147.6463484422713,-74.61851507949197,272553.4328289702,261801.4341069366,323480.3478712841,6,2081,1748,1
-991.5080392863698,145.08018863386292,-75.1968011802029,272301.41237214196,261612.76716186374,323144.2345877954,27,2175,1858,1
-992.6923778219841,142.14316856076326,-75.31406180493673,272015.44775425835,261552.4139556491,322695.2927343433,8,2102,1783,1
-994.1091574955121,138.85561173590824,-74.95284904962188,271700.9777797076,261616.67065328758,322145.03004293394,0,2118,1906,1
-995.7680003243929,135.24114184404414,-74.08903206631253,271361.5641795827,261801.56589298265,321504.67854425166,0,2103,1837,1
-997.6814108567619,131.32559049089085,-72.69215815370485,270999.00407942664,262102.26600701557,320784.7949053854,0,2089,1828,1
-999.8641919257087,127.13592119047347,-70.72598911851073,270613.3866043062,262512.76138677413,319994.9031094874,0,2086,1861,1
-1002.3341309803334,122.69929804660536,-68.14925953530403,270203.05409889296,263025.93790276535,319143.2789048098,0,1993,1911,1
-1005.1133245423781,118.04249426346888,-64.91650393719367,269764.5356609951,263633.89502881083,318236.8144858826,0,1935,1980,1
-1008.2311542776198,113.19253168476862,-60.98363388419426,269292.560409622,264328.31769506907,317280.9007360852,1,1979,1949,1
-1011.7312256474223,108.17885346798977,-56.327779092174346,268780.21988011943,265100.71987422474,316279.32511275815,4,1944,2014,1
-1015.6780450783481,103.0364482155955,-50.97516142084091,268219.46014263266,265942.09502522566,315234.32955192064,14,1794,2111,1
-1020.1524613282492,97.81100329988388,-45.0124377874024,267602.45376622997,266841.81101328734,314146.93535694305,8,1774,2148,1
-1025.2346394681044,92.56761888408045,-38.573285321578574,266923.9764377435,267787.0203562644,313017.20536042575,3,1687,2213,1
-1030.989331655678,87.39756970605423,-31.817494747708242,266183.514924242,268763.7311660377,311844.06823896116,6,1645,2291,1
-1037.4660935711051,82.41379572531994,-24.916214117156876,265385.62893054023,269758.79198306793,310624.77717090206,0,1486,2414,1
-1044.708983956768,77.73903845584599,-18.04191795675575,264538.75106637034,270761.6638352811,309354.3065496139,6,1387,2470,1
-1052.7628971081108,73.49870225749112,-11.360228122890783,263653.8747719845,271765.47048275813,308025.06902590994,0,1292,2543,1
-1061.6747242906465,69.81739761854905,-5.022439140754626,262744.0005370071,272767.1460412086,306627.18985874305,7,1252,2531,1
-1071.4942876740058,66.81193752645933,0.8443255824221688,261824.06774549556,273766.93470379716,305149.11947896535,5,1134,2595,1
-1082.2749830894586,64.5838266960223,6.147202654323996,260910.87198840658,274767.66379606747,303578.1424034876,7,1119,2647,1
-1094.0717914656993,63.21712327406669,10.831215000382777,260022.73623681662,275773.96239141305,301900.52114763163,0,1012,2696,1
-1106.9380935558938,62.779121292171105,14.87571876924423,259178.97215437895,276791.3389780162,300101.3661470717,0,877,2753,1
-1120.9239004472795,63.31973925021349,18.28790002286829,258399.40646081785,277825.20416860905,298164.5616594299,0,869,2771,1
-1136.0752610232714,64.87237167014906,21.094571356206906,257704.05748756754,278880.11497857806,296072.96261778317,0,814,2809,1
-1152.4335103783885,67.4586828895087,23.332174074115205,257112.84339849203,279959.3101325259,293808.8333356199,0,743,2823,1
-1170.0338406823753,71.0941358437503,25.038301323901212,256645.37126147616,281064.5034101728,291354.4267583993,9,699,2842,1
-1188.9032527295913,75.79154635361436,26.24737260006843,256320.84065350046,282195.931321065,288692.6360548331,4,664,2876,1
-1209.0580682783107,81.56294035972337,26.989247167702946,256157.9599086083,283352.5584404545,285807.6529060753,0,618,2918,1
-1230.500944113314,88.41993874589411,27.289510766461976,256174.79925595125,284532.3674795632,282685.50442166044,0,573,2943,1
-1253.2175720788255,96.3727340709276,27.170973997655388,256388.54850187525,285732.74387970474,279314.3876970667,0,486,2972,1
-1277.1736539109666,105.42821909936016,26.655627060108035,256815.23442297245,286950.85361722816,275684.89799895923,0,406,2986,1
-1302.3128771771594,115.58739902220617,25.76772849597118,257469.46218608244,288183.9411618016,271790.1846894456,0,329,3025,1
-1328.5555518139286,126.84200584412922,24.53909389602045,258364.1347646051,289429.57393387763,267625.9757201699,2,309,3048,1
-1355.7960853997456,139.1711852641887,23.014236009956676,259510.08888378873,290685.6904599105,263190.64155156654,3,217,3064,1
-1383.8988861065363,152.53987804926308,21.251238969947476,260915.57962718693,291950.2641799386,258485.45918390222,0,213,3065,1
-1412.694296097469,166.89927538716486,19.318022314671673,262585.6030176139,293220.6445520537,253515.00538661148,2,180,3062,1
-1441.9756558406687,182.18761532057823,17.287423329771713,264521.23809664074,294492.84910117235,248287.72193103813,0,178,3069,1
-1471.4978572908326,198.32975092014573,15.233319376027572,266719.15815117327,295761.016929668,242816.70477297262,4,128,3088,1
-1500.9770822878422,215.23557040915932,13.227413559610566,269171.2366217434,297017.02320914326,237120.54989114095,2,87,3109,1
-1530.0906139997926,232.79815568525157,11.335195652204122,271864.10621974594,298250.2250519432,231224.13124817156,4,85,3091,1
-1558.4753631614071,250.8926492422363,9.609791533566977,274778.60020078364,299447.37142802944,225159.30350081337,0,97,3102,1
-1585.7241074004196,269.37586590248975,8.085013138337372,277889.1431640682,300592.71454504033,218965.54399000225,2,71,3097,1
-1611.3811550883822,288.0858461279845,6.769927676510464,281163.3605116758,301668.5546831683,212690.43273776525,4,90,3106,1
-1634.940680828835,306.84061854701025,5.6452741513295335,284562.10770411923,302656.4204951803,206389.7986576789,9,91,3077,1
-1655.848539900664,325.4357111873908,4.661953201701382,288039.75896833796,303538.53020345216,200127.65201751576,6,122,3068,1
-1673.5091959707734,343.6419902096525,3.743067168614539,291544.7392058631,304299.306923163,193975.860974154,12,174,3019,1
-1687.2997810391887,361.20657442038686,2.7902168279508937,295020.5121580976,304927.1482983455,188013.3087628944,15,268,2971,1
-1696.588615710613,377.85643276428,1.6928255600798596,298406.7558132271,305416.12001100875,182324.99510409526,25,326,2931,1
-1700.7617751707623,393.30394210801194,0.3410465298532884,301640.6239154543,305767.1378737917,177001.52796241024,14,451,2814,1
-1699.2650491259858,407.2561767884902,-1.3566806042082227,304658.43460754387,305988.73709742323,172138.7157424158,9,591,2701,1
-1691.650043438735,419.42967734904136,-3.4568906296761726,307397.58978741494,306097.4279591031,167837.08312063056,13,726,2603,1
-1677.60730767099,429.57765412794697,-5.97044156568661,309799.09491894103,306117.48984204256,164200.72636806083,7,944,2414,1
-1656.9836625835098,437.53289647412345,-8.855450272072671,311811.56933580816,306080.30838212883,161334.7286261998,13,1011,2355,1
-1629.782359568933,443.24737222363774,-12.00906079219895,313395.7429556992,306023.560737595,159341.89303820478,8,1159,2222,1
-1596.139304022051,446.8033539583709,-15.2538382569089,314527.99435891584,305990.2191324878,158319.7625908952,14,1377,2047,2
-1556.280645900731,448.3908868392151,-18.320043477526127,315202.92748724914,306026.9896627547,158357.90566264777,13,1583,1858,2
-1510.4884876737826,448.26724604184676,-20.838246343430896,315434.68484105647,306182.03186028654,159535.91449646,3,1654,1791,2
-1459.096057924721,446.7143587392779,-22.361453775119315,315256.0741925898,306501.2072725028,161922.2527066046,0,1765,1670,2
-1402.5046598944966,443.9988792167901,-22.41496814793253,314715.5527356444,307022.2188201634,165572.85466590433,3,1843,1596,2
-1341.2033786248744,440.3421705177333,-20.546341322625413,313873.1750209155,307768.44765572675,170528.79434895472,0,1883,1567,2
-1275.7818464928228,435.9078364632056,-16.36015189699598,312795.53619231674,308744.39131592616,176813.06060321952,0,1922,1533,2
-1206.9355459987842,430.80323708378506,-9.547418107186196,311549.1474319619,309932.4605944975,184426.8417896601,0,2008,1452,2
-1135.4657987977787,425.08805775540094,0.08873252393387418,310194.18185878074,311291.112278305,193346.75095631345,0,2016,1452,2
-1062.267062816931,418.78668176610694,12.621314704778516,308780.7855929078,312755.2869580871,203524.93562281615,0,2014,1452,2
-988.2909785694916,411.9027055561224,28.002407003558773,307347.5340469727,314239.4020729791,214892.37164242158,0,2013,1451,2
-914.497472632617,404.4322831702482,46.072614880994635,305921.2902974593,315642.00057018147,227363.14530674065,0,2013,1452,2
-841.8074993563297,396.3751464082337,66.57223814596773,304518.78743476066,316852.40847455995,240838.47759737822,0,2010,1455,2
-771.0612230778711,387.7455226221355,89.15390803245148,303149.9847268901,317760.3042273395,255211.19591779247,0,2011,1450,2
-702.9938849317265,378.57908009529325,113.39566379361142,301822.01987428695,318265.4894276615,270369.6293405095,0,2010,1453,2
-638.2371155961553,368.9259102242768,138.81733978125953,300542.54028245335,318284.8707441973,286199.98494615493,0,2009,1453,2
-577.3357233970038,358.82904428217444,164.90306927746425,299322.08770630526,317757.13099758193,302588.41790648963,0,2009,1451,2
-520.7694052931379,348.3046281304638,191.1226022962438,298175.3270423923,316645.436335967,319422.8037471873,0,2010,1451,2
-468.9719655978991,337.34049540100006,216.95250946144597,297121.2888402877,314937.63711947843,336594.03031148453,0,2009,1453,2
-422.3411100630241,325.9128279327219,241.91012805657078,296183.3383231979,312644.5914492563,353997.8596602508,0,2010,1452,2
-381.2378913383094,314.0062852631034,265.59635590117205,295389.14258471754,309797.8264844118,371536.7015825985,0,2010,1453,2
-345.9800180283639,301.62456680977033,287.7325854110769,294770.05486122734,306446.36677718046,389120.4034441145,0,2010,1452,2
-316.8336229227293,288.7898024110825,308.18416162883045,294359.3095821467,302651.7024919191,406666.7779141347,0,2009,1455,2
-294.00840333468193,275.53648691086516,326.96074231171974,294189.59778816305,298481.80594709085,424101.6064500629,0,2010,1452,2
-277.6569740186616,261.90284637133595,344.1847665965959,294291.16071972036,294005.26818070374,441357.57881261193,0,2008,1455,2
-267.87429127982324,247.9185584595691,360.03903797819635,294690.9314777458,289285.3417607822,458372.97016784624,0,2008,1453,2
-264.6958706210221,233.59216698030056,374.721675140347,295412.7183843127,284375.3433116776,475090.38519328076,0,2011,1453,2
-268.0963976519397,218.9047855256287,388.4225601592678,296477.93487881526,279317.03443452256,491455.64064512623,0,2010,1455,2
-277.9894744951865,203.81223106707444,401.3118194474407,297906.0590010758,274141.2015667404,507417.316102172,0,2006,1453,2
-294.22857407574764,188.25379739767428,413.5310473180426,299714.2276694723,268869.2839098516,522926.5340147892,0,2008,1453,2
-316.6094348959502,172.1654948050575,425.18597825518066,301915.67721043975,263515.8929457307,537936.5604692624,0,2012,1451,2
-344.8740077495941,155.4949963725322,436.3414753001125,304517.25363212393,258092.1563341997,552402.7523395544,0,2007,1452,2
-378.7146857415016,138.21301499784153,447.02045909010957,307516.9082071045,252609.06344981948,566282.5867625967,0,2006,1452,2
-417.7800371353853,120.31600713934225,457.20740636547845,310901.7589280988,247079.9718596195,579535.5241333303,0,2008,1454,2
-461.68513185331165,101.82051718307572,466.85481956198157,314646.50459288695,241522.26297583937,592123.2933492096,0,2008,1451,2
-510.02310862690274,82.75403680268737,475.88896181587603,318712.2161619435,235958.33615494668,604010.2792165644,0,2008,1453,2
-562.3730035821674,63.14549600749015,484.2126044736063,323046.04645976424,230415.80507912225,615163.6354617169,0,2008,1455,2
-618.3043683520676,43.015447945319565,491.7063421551784,327582.0554720861,224926.89652783785,625553.5950906198,0,2004,1455,2
-677.3814047062443,22.365500531002866,498.2311333709159,332242.6051804185,219527.6404637466,635153.641913838,0,2009,1454,2
-739.1680595819474,1.1674066387166724,503.6329086262408,336940.22965835314,214257.14470827792,643939.9870968882,0,2009,1451,2
-803.2312414808979,-20.644129940857734,507.7478562408367,341580.3943976074,209156.63968809936,651890.6849177553,0,2005,1453,2
-869.140363668422,-43.17109716623546,510.4079631464813,346064.4203973006,204268.52277800522,658984.6004931773,0,2007,1454,2
-936.4662388279311,-66.54624680561999,511.4476885633827,350292.0360640742,199635.62824546685,665200.2945014343,0,2006,1457,2
-1004.7792836461717,-90.9256176709429,510.71069467561364,354164.17309672915,195300.34809046736,670515.1886780582,0,2008,1453,2
-1073.646228498023,-116.48099516524732,508.0547010980925,357585.64686371095,191303.74818609853,674905.1219373806,0,2008,1453,2
-1142.6284233728445,-143.39109643811182,503.3542952917328,360467.16707128077,187684.92729009184,678344.3024990098,0,2008,1455,2
-1211.2813243088133,-171.83056172982253,496.5031883266485,362727.1990613984,184480.3199076984,680805.7729842683,0,2004,1458,2
-1279.151251520898,-201.9582275766529,487.41705376770113,364293.607942323,181723.021589812,682262.1130364968,0,2004,1454,2
-1345.7713086994067,-233.90582381522705,476.0367311723515,365104.68721574056,179442.35289191475,682686.1960540288,0,2006,1455,3
-1410.661353776428,-267.76686076328247,462.3312898123711,365109.87942103366,177663.46237404266,682052.2401073716,0,2010,1452,3
-1473.3308627576591,-303.5866568296418,446.30018849516364,364270.3497871824,176406.94766437405,680337.0442228423,0,2009,1453,3
-1533.283102348242,-341.3539695374632,427.9727439694321,362559.383337374,175688.49278790609,677521.2193510866,0,2001,1460,3
-1590.0213318146332,-380.9918783580257,407.4042387189246,359962.86205807375,175518.29106000005,673590.5272960514,0,2000,1464,3
-1643.0535787738922,-422.34594140700125,384.6718484785476,356480.0407836163,175900.4259297346,668537.122610293,0,2010,1463,3
-1691.8985580782137,-465.17285671964635,359.87412653469625,352124.7772329484,176832.78002013935,662360.3316447372,0,2004,1463,3
-1736.1022498702396,-509.13730659583894,333.13432285655034,346927.2607394464,178307.71936777036,655067.1360187916,0,2004,1464,3
-1775.2623196746513,-553.820009466662,304.60645898971535,340935.76493643015,180313.10621040835,646672.8347710259,0,1997,1471,3
-1809.051813524404,-598.7329938677152,274.4822440407517,334217.6017296533,182832.93105990617,637201.7943302148,0,1993,1471,3
-1837.2390523409058,-643.334966893494,242.99470148173236,326858.9114157789,185847.21449083046,626687.7771339238,0,1986,1481,3
-1859.6972202655932,-687.0371473823953,210.41760853019218,318963.80943071516,189331.3264006012,615173.923308512,0,1988,1477,3
-1876.4008841909078,-729.19728281008,177.06537044780768,310653.05173630826,193255.36667578883,602712.458076565,0,1981,1487,3
-1887.419017230857,-769.1109194192904,143.29633683929194,302061.710778563,197584.22710086463,589363.8935858816,0,1954,1501,3
-1892.9126049176919,-806.008257168449,109.51732349535474,293336.21784728253,202278.19165139386,575196.3105337813,0,1965,1488,3
-1893.1343295540328,-839.062992636154,76.18279643189321,284630.4543888474,207293.71318928836,560284.8615539357,0,1961,1499,3
-1888.4246621834166,-867.4168480932049,43.78466840840968,276099.85508961376,212584.2595044715,544710.7265066443,0,1966,1491,3
-1879.202206654695,-890.2118215792066,12.837752427546777,267895.0904870976,218100.85488688532,528560.0715930422,0,1958,1493,3
-1865.9462157787925,-906.6254385892886,-16.1369423507279,260156.50861209875,223792.1957006288,511923.73069297534,0,1964,1496,3
-1849.1721289029454,-915.9130944936061,-42.63522375278178,253008.12906686388,229604.7754208112,494897.1903551677,0,1960,1497,3
-1829.4086657289708,-917.4489441412878,-66.1945426677451,246552.0722026028,235483.01698923673,477581.1864669959,0,1968,1488,3
-1807.1787647641272,-910.7594158908589,-86.41263802847175,240864.96597427677,241369.48462074716,460083.276519001,0,1965,1494,3
-1782.9795428366328,-895.5599896279176,-102.95671076955563,235995.6401097038,247206.2775183783,442519.4860066364,0,1963,1489,3
-1757.2653158982907,-871.7917484508264,-115.56443019524994,231963.7666618576,252938.05830978407,425015.45897344867,0,1953,1498,3
-1730.4385967196126,-839.6398621230638,-124.05158344255382,228759.7294797119,258514.8359897005,407707.2468156782,0,1956,1500,3
-1702.8463625883749,-799.5318040144547,-128.33923513599134,226345.6230931165,263892.18340380304,390740.4938209704,0,1968,1487,3
-1674.780074743928,-752.1295463963363,-128.48908128301514,224657.4680011409,269028.8341596581,374266.6865892904,0,1972,1483,3
-1646.4787058541733,-698.3285755740206,-124.73281990604487,223608.57196988526,273883.65798290184,358438.2102888474,0,1997,1467,3
-1618.1321424030784,-639.265780699542,-117.49611109523416,223093.82955127157,278413.8217277188,343404.24692053435,15,1993,1477,3
-1589.8836654102754,-576.3295708899668,-107.41439681008973,222994.88095345546,282574.53442062193,329307.23036802764,306,2008,1458,3
-1561.828938328438,-511.15324710012374,-95.32565434027762,223186.7451375207,286320.96213418245,316278.7702603538,1115,2013,1453,3
-1534.0082987266642,-445.5705414600048,-82.2311659683339,223546.90643674746,289614.31485858903,304433.80545279133,2186,2014,1456,3
-1506.3994561819652,-381.5273964500453,-69.23216197214037,223965.17966920734,292432.4064619427,293863.69120895787,2752,2007,1458,3
-1478.9273093613945,-320.9086084155198,-57.43739014646029,224351.3527922811,294781.54833330604,284630.5291435722,2932,2005,1456,3
-1451.4923987922034,-265.24809263991546,-47.81194700722126,224642.1489215517,296706.29506304325,276762.92528325453,2998,2018,1451,3
-1423.9935094493867,-215.4555080317922,-40.97037573606657,224811.2016369087,298293.3728268747,270253.2442574142,3065,2015,1450,3
-1396.3412960090475,-171.7407427956856,-37.015188787709434,224878.12535177547,299665.13848808524,265058.98988203774,3180,2020,1451,3
-1368.5057504501915,-133.76213956102802,-35.56061235447756,224905.63590456542,300959.26903596555,261109.77454888905,3140,2029,1453,3
-1340.607057875137,-100.88981407735726,-35.927685633578534,224981.21970440852,302298.84179448674,258316.27762236894,3122,2029,1457,3
-1312.9832751799422,-72.43061272947202,-37.3427114345006,225194.0193167283,303766.6784314231,256576.43963426712,3081,2042,1453,3
-1286.1575543861877,-47.736222377274295,-39.05402516484388,225617.41908273075,305393.33168709883,255779.90388829552,3104,2047,1452,0
-1260.6887233248044,-26.225159583005848,-40.40648721864981,226299.12030483782,307157.40937838756,255813.88518415706,3131,2044,1453,0
-1236.986335478569,-7.365096081691409,-40.89540548010011,227259.09811783378,308994.9588291328,256569.22448689726,3142,2047,1450,0
-1215.2049394456817,9.346480154589253,-40.1938509138841,228493.9060675515,310812.3612271715,257944.1661711353,3180,2065,1451,0
-1195.258697985756,24.37309749003623,-38.162079507797415,229983.01076491986,312498.08299048385,259846.02022010894,3192,2104,1457,0
-1176.9192389290454,38.10533558476959,-34.841378666332496,231695.26066034156,313934.17212607694,262191.8222832473,3179,2099,1455,0
-1159.9269172683246,50.82935767604988,-30.430146341718988,233594.21562140042,315007.23762488505,264908.2545440227,3170,2077,1453,0
-1144.0626586608298,62.720082944731,-25.251634725281168,235641.28913256346,315618.3109250117,267930.51620921463,3128,2123,1459,0
-1129.1742740654217,73.86014326697456,-19.72345370580215,237797.9327734555,315693.29149322456,271200.16319356085,3087,2112,1456,0
-1115.171654283409,84.26977840859233,-14.329116192978764,240027.68538816055,315192.2282655213,274662.68998853525,3025,2120,1459,0
-1102.0038365025425,93.9388800251521,-9.569971829007034,242297.65437755277,314114.28885500383,278265.7816141487,2984,2128,1459,0
-1089.6297990476646,102.86208704265377,-5.879879810164403,244579.104799,312498.72327836056,281958.8669233777,2916,2122,1462,0
-1077.9991034031302,111.06755965754525,-3.536767493083987,246846.88628432434,310422.5297724266,285694.1768091934,2845,2113,1463,0
-1067.0582316404625,118.62470390201314,-2.6225461358196283,249077.76746194734,307992.5239623891,289428.39240270416,2749,2115,1462,0
-1056.7734724067284,125.6293137537907,-3.0459609442222786,251248.79229887936,305329.4576585686,293123.6655075459,2648,2136,1462,0
-1047.1403098123371,132.1778984116904,-4.606520610345947,253337.07925717556,302548.5846352955,296747.78498277086,2478,2164,1464,0
-1038.1702581756895,138.3467331059381,-7.058125256065098,255321.00402439598,299745.5936383687,300273.67331460555,2355,2181,1466,0
-1029.8730305449526,144.18258984113143,-10.14926874058033,257181.65358955122,296991.4035776944,303678.387632681,2131,2202,1470,0
-1022.2465308682064,149.70276315984012,-13.648967160400932,258903.91327858335,294332.800826998,306941.9853212037,1951,2210,1629,0
-1015.2750302625977,154.9005788889901,-17.36572059833329,260476.85960073693,291795.4393462785,310046.64250147867,1698,2265,1633,0
-1008.9328907124473,159.75361038641742,-21.157989243257227,261893.4911251271,289388.1675696701,312976.3244483153,1553,2278,1633,0
-1003.1891000332009,164.2326750541576,-24.937910587822422,263150.3322928059,287108.6521770248,315717.0026766475,1434,2289,1633,0
-998.009222712001,168.3088839326711,-28.668876668347103,264247.2088126313,284948.9644212357,318257.02035437897,1226,2307,1632,0
-993.3554692025855,171.9571032238127,-32.35428617511708,265187.02651423466,282899.99224371003,320587.3894942818,1084,2313,1634,0
-989.1870196369279,175.15719907279217,-36.01744031693317,265975.3566702207,280955.10343573085,322702.1268651248,999,2312,1632,0
-985.4617211661478,177.8943158859949,-39.680027249707024,266619.8618427478,279112.8369121572,324598.495794035,887,2342,1639,0
-982.1397297625084,180.1586744132576,-43.34644834363234,267129.645677331,277377.6764875341,326276.9377047016,677,2362,1642,0
-979.1888105991163,181.94537474403396,-46.9945723668403,267514.5909247322,275758.9531026143,327740.7708285197,462,2361,1640,0
-976.5887747588822,183.25409923418636,-50.57330586708427,267784.8832169129,274268.8139171933,328995.7741031032,382,2428,1638,0
-974.3318858925695,184.08856918356415,-54.009113345946275,267950.8825400097,272919.83280152327,330049.6335697275,403,2463,1639,0
-972.4189064222418,184.45615701207115,-57.21970356212967,268023.25870719366,271722.4027504681,330911.2519653887,290,2496,1646,0
-970.853984955083,184.36785398939966,-60.12778754911611,268013.18288729736,270682.74909625953,331590.0926075454,180,2519,1643,0
-969.641384065509,183.83792257360446,-62.670038105739806,267932.429946159,269802.38339804957,332095.7251254114,182,2563,1647,0
-968.7840345200154,182.88269554614251,-64.80210976037371,267793.363653755,269078.69171517144,332437.56283957657,270,2582,1649,0
-968.2831922679143,181.51906789968035,-66.50040160478541,267608.82965390955,268505.9668782511,332624.7360982662,168,2589,1646,0
-968.1394653545798,179.76345460991854,-67.75963519080815,267391.9266109476,268076.6328553554,332666.0745196986,167,2580,1647,1
-968.354728432431,177.6314919192119,-68.5867749124187,267155.6254023159,267782.6197058629,332570.14677390904,188,2597,1647,1
-968.9335188592055,175.13866607127542,-68.99407723053308,266912.3449083332,267616.48722235096,332345.29532348795,126,2603,1650,1
-969.8834452740709,172.30199995420992,-68.99362417249824,266673.5688314099,267571.8464555208,331999.62281000824,168,2624,1654,1
-971.2151565186027,169.14224527140368,-68.59336584119072,266449.48144703615,267643.1403650325,331540.92080372595,68,2658,1651,1
-972.9422307355288,165.68517068409938,-67.79487058035551,266248.70816893363,267825.14320782316,330976.55511960015,60,2675,1654,1
-975.0810760878339,161.96064276659138,-66.59355780242716,266078.270318376,268112.41610142065,330313.2526273173,39,2685,1658,1
-977.650974074267,157.99992274912233,-64.98062326239484,265943.70258778566,268498.78016973846,329556.74020745535,78,2665,1664,1
-980.6740075617505,153.8338236423629,-62.944836868652146,265849.19483624824,268976.91506972926,328711.393065278,103,2667,1668,1
-984.1742268179777,149.49453259506853,-60.47341148119174,265797.6035834485,269538.2369752686,327780.1255057198,72,2682,1686,1
-988.1760890655538,145.0209979779749,-57.552627766068404,265790.2416707562,270173.07655587466,326764.6246802948,55,2691,1688,1
-992.7034919241477,140.46396460686856,-54.16821777819045,265826.52864916116,270871.05571377196,325665.8694657588,30,2687,1681,1
-997.7809351544647,135.88628393620908,-50.30473370182985,265903.57048821315,271621.6869449233,324484.7276509065,21,2671,1709,1
-1003.4362699654966,131.35876945566943,-45.94572555664275,266015.5881966549,272415.26167530793,323222.37440126215,8,2687,1701,1
-1009.7027009382424,126.95590839535494,-41.07648490616619,266153.3727091255,273243.77103931695,321880.4059697353,5,2712,1759,1
-1016.6199674489108,122.75346330037708,-35.68650628602907,266304.3380125041,274101.6185821644,320460.65283395624,0,2728,1767,1
-1024.236959820353,118.82628774119844,-29.768938212753916,266453.44482357113,274986.12324555876,318964.73924939864,0,2783,1769,1
-1032.6156141482325,115.24516207583157,-23.3219124768022,266584.56450717454,275897.52750572923,317393.5289857215,0,2770,1810,1
-1041.8326745174336,112.07353052391058,-16.35891529469903,266682.06493645627,276837.89231174573,315746.42958058184,0,2702,1839,1
-1051.9761095689696,109.36665495636105,-8.921586242718233,266732.92915513116,277808.8084059772,314020.4289448202,0,2732,1835,1
-1063.1364217230014,107.1749256487691,-1.081138321314262,266728.9655155719,278809.21794845426,312209.19602069305,0,2772,1849,1
-1075.396606387882,105.5489874023305,7.072373001706877,266668.0337181312,279835.0257982235,310302.65132346,0,2753,1884,1
-1088.8252677804164,104.54227862842097,15.444324399375658,266553.9392990309,280880.5480443102,308287.04324093164,0,2715,1915,1
-1103.4744941904469,104.21039661938673,23.94597087089146,266395.42129610415,281940.2699236043,306145.51114329847,6,2718,1960,1
-1119.3803764033755,104.61107964375095,32.498579212937635,266204.70471930073,283009.83838498883,303859.16837704834,4,2681,1961,1
-1136.5646452936692,105.80578462522216,41.033583360469734,265996.0012774812,284086.41333776625,301408.57579550473,16,2661,2030,1
-1155.0375143950594,107.85988925757958,49.49141575919287,265784.4663643895,285168.67479550507,298775.1725620701,0,2607,2044,1
-1174.8015082901697,110.84091632500272,57.82105107636382,265585.7710106449,286256.4827610288,295942.2814485094,0,2599,2125,1
-1195.8551496817051,114.81680129637661,65.98083732810848,265415.90420820104,287350.25135204964,292895.69624477316,7,2613,2133,1
-1218.1937731835335,119.85530006860432,73.93849666995737,265291.00290683686,288450.26219926495,289623.9878602588,1,2537,2186,1
-1241.8064620072548,126.02386638896553,81.66875183592374,265227.3470711769,289556.04639708786,286118.4904249768,0,2525,2240,1
-1266.6715186004942,133.3888063668052,89.14985719551933,265241.5678703006,290665.81178577093,282372.95016074623,8,2439,2308,1
-1292.752265969622,142.01330748254554,96.36094122288372,265350.8762063056,291775.9752470021,278383.1383250473,0,2414,2323,1
-1319.9929438112624,151.9546226248832,103.28020548266662,265573.0233792326,292880.93871182686,274146.55353553285,7,2363,2367,1
-1348.3140785412797,163.26087786888837,109.88332881445031,265925.8917953737,293973.12164070265,269662.0251018911,11,2362,2435,1
-1377.606964814148,175.967974019198,116.14224220439615,266426.8698379047,295043.1248747374,264929.4285670229,0,2324,2468,1
-1407.7273698585002,190.09678613975012,122.02426629748949,267092.13414251246,296079.9344219918,259949.83753937896,0,2261,2502,1
-1438.489461866518,205.65060013057152,127.4910152228731,267935.8642257748,297071.15849527984,254726.06264161033,0,2192,2516,1
-1469.662015476567,222.61244747019845,132.49735498455684,268969.4270507912,298003.3287307042,249263.55011146082,0,2132,2573,1
-1500.9679921635084,240.94161478668866,136.9919375254606,270200.5674571285,298862.2731355234,243571.6351262182,13,2093,2588,1
-1532.0854834527618,260.5690645180225,140.91937362473976,271632.67193559196,299633.4281969303,237664.91540865524,0,2134,2595,1
-1562.6482822889807,281.3927531519849,144.22153856642888,273264.01725685305,300302.04020683287,231564.42362514924,1,2053,2587,1
-1592.246419197988,303.2741073612268,146.83604097122736,275086.81307431974,300853.4233645464,225298.44376505536,0,2036,2440,1
-1620.4256706348106,326.0357739801148,148.69242967568323,277086.21539182495,301273.3586095993,218903.06534616643,0,1990,2463,1
-1646.685926574426,349.46035244931045,149.70801327529506,279239.7346139884,301548.7700543341,212422.41077211584,9,1839,2518,1
-1670.481085191313,373.29008091563594,149.78520887807468,281517.2023519296,301668.8532677258,205908.38303477757,12,1796,2519,1
-1691.2220811485506,397.2267059573044,148.81255327129145,283881.1150645185,301626.387049465,199420.29400354114,6,1701,2530,1
-1708.2869393879848,420.93164471010016,146.67244961838082,286287.24008569523,301419.00898562674,193024.60308953346,16,1650,2447,1
-1721.0422500964073,444.02757425306777,143.25623500162797,288685.46413361194,301050.58807518723,186794.55895574385,7,1569,2406,1
-1728.8710684061984,466.10121269750243,138.48063500072442,291020.5361752274,300532.4274805392,180809.99995218797,19,1560,2322,1
-1731.2030473930497,486.7118706637641,132.2984244085456,293232.66144352435,299883.8213262575,175157.44844339596,11,1568,2253,1
-1727.5474687872813,505.41361204871987,124.70025845641554,295258.5068460721,299131.9724231445,169929.98592776447,20,1606,2167,1
-1717.521458409685,521.7871802148042,115.70982644948366,297033.18193162826,298311.6306358846,165226.7365278705,20,1735,2050,1
-1700.8686154137506,535.4726113431082,105.3831071757834,298494.8618022769,297464.8186369387,161151.71644411117,18,2071,1899,1
-1677.4739856361787,546.1973332455412,93.82397054948288,299593.2883261826,296640.83091972285,157811.5805752336,7,2060,1825,1
-1647.3727281213633,553.7914566162331,81.21577714229315,300299.20002489124,295896.2901947782,155312.85898884397,25,2050,1791,1
-1610.7381472406144,558.1877852536562,67.85803925329176,300611.1723599892,295294.19259926677,153759.09266325898,21,2071,1678,1
-1567.8476650943269,559.4158590984065,54.192771762365815,300559.75888973265,294900.90845048684,153247.40602598077,18,1972,1649,2
-1519.0483079552714,557.5971136558733,40.802620409304794,300208.89146895846,294781.4367213249,153865.14298917295,11,1930,1606,2
-1464.737407975263,552.938820590271,28.369548105405293,299652.6311870569,294992.5099700455,155687.11062462625,0,1937,1579,2
-1405.3537221436486,545.7228080751347,17.607051760688922,299006.62251081143,295572.92390681896,158772.62440447672,4,1960,1526,2
-1341.3768628462076,536.2914479264074,9.199266042040543,298396.9651968654,296533.96463158214,163162.1816641651,0,1975,1509,2
-1273.3420949667761,525.0306498410823,3.7567545796837294,297947.9130187567,297852.8889264014,168874.19420826546,0,2024,1458,2
-1201.8701944040306,512.3431243108263,1.7730764797921683,297767.5824481148,299469.8012240508,175902.69243850745,2,2013,1457,2
-1127.6980461400663,498.61591756462616,3.5860717776153024,297935.1032026854,301288.64023635746,184217.7096460349,0,2008,1456,2
-1051.6873012626238,484.19256452855814,9.357673748374586,298494.0124466214,303182.0886280398,193768.23665708245,0,2013,1455,2
-974.7927273342466,469.3541307798027,19.06923264916684,299452.2306446065,304999.9787950513,204486.65697637628,0,2010,1455,2
-897.9995358133907,454.3151230376411,32.526412871220565,300786.5937810534,306581.4462271484,216294.39549276364,0,2010,1458,2
-822.2660898339461,439.23683235266327,49.372984216258146,302449.29147042736,307767.5755195323,229106.8829072078,0,2010,1456,2
-748.4888028118021,424.25272105259836,69.11637218395661,304374.7673854558,308411.9950783228,242836.22487882632,0,2010,1457,2
-677.4768840022911,409.49815859483203,91.16469276598933,306487.1622574031,308391.027820905,257392.5725361652,0,2009,1455,2
-609.9354832892199,395.13059183791574,114.86205284322061,308706.7097550747,307612.6571304064,272684.7338430706,0,2012,1452,2
-546.4645472263678,381.3265839322806,139.51752682722235,310953.84272720077,306022.2798638862,288620.38378024293,0,2012,1453,2
-487.5689916119446,368.2579375027226,164.43978137992747,313152.089144645,303605.98098315013,305106.9524912229,0,2013,1453,2
-433.67346101954917,356.0641767458975,188.9774121738118,315229.97056041093,300391.6302940591,322052.6982029128,4,2012,1453,2
-385.1399189048349,344.83381824325613,212.5593129434981,317121.47740034113,296446.0609060493,339367.4527934709,0,2012,1452,2
-342.2870517165406,334.59258192546133,234.73455605313427,318765.9865500419,291867.66702634044,356963.8493404967,0,2013,1452,2
-305.40719037634966,325.2967439689253,255.19812702169133,320108.74192008504,286776.835140303,374758.55490968603,0,2012,1452,2
-274.7731553443116,316.8351075466503,273.7859663214651,321102.8267408242,281305.1188830865,392672.8042203258,0,2013,1452,2
-250.63156152484183,309.03974784907547,290.4438423126949,321712.93919581175,275582.144129692,410632.75143669645,0,2013,1455,2
-233.19014271333998,301.6996903687726,305.1900945386479,321919.469670388,269723.8097101919,428569.2241719439,0,2013,1455,2
-222.60856254546133,294.57228232454037,318.08530229817654,321721.18656955595,263825.79849731945,446416.4258387015,0,2012,1455,2
