AccX (g),AccY (g),AccZ (g),GyroX (deg/s),GyroY (deg/s),GyroZ (deg/s),Heel ADC0,MidFoot ADC1,Toe ADC2,LABEL
-1021.1100664470027,-121.53243172211992,107.8029861435723,320867.839158628,131019.0515331764,203209.56457967742,0,2158,1783,4
-1017.9653294898158,-120.05977882055407,105.55254181040418,320957.0795342712,130674.96507975925,203176.72640627628,0,2157,1805,4
-1014.8134077421317,-118.72412518952355,103.4853964310898,321048.4889676141,130329.59068177156,203133.46778614004,0,2174,1807,4
-1011.6837427273048,-117.55741039969045,101.63616230444075,321139.5728083732,129984.90284336812,203077.45572096424,0,2146,1827,4
-1008.6056529041347,-116.58804058926916,100.04059622151115,321228.1021562664,129642.51471723372,203006.4527788497,0,2118,1681,4
-1005.6080102289455,-115.8388862496131,98.73556334231236,321312.2040048155,129303.63577502103,202918.36636110832,0,2106,1702,4
-1002.7190663667651,-115.32513123368076,97.7590269428993,321390.38065993844,128969.07540232137,202811.25990466238,0,2084,1727,4
-999.9665294849582,-115.05311963382708,97.1499088762712,321461.4255915752,128639.26854337369,202683.32461960902,0,2054,1745,4
-997.3778454074892,-115.02046514771548,96.94758504486693,321524.23840434174,128314.28432905076,202532.8208815842,0,2063,1730,4
-994.9806236151348,-115.2168994538283,97.19096743955379,321577.61272896995,127993.81965569065,202358.01542996583,0,2067,1727,4
-992.803081680737,-115.62529774679233,97.91704392273641,321620.07435072644,127677.17907955442,202157.11167216842,2,2058,1747,4
-990.874328142025,-116.2226291618739,99.15908177521766,321649.7996374741,127363.22401168721,201928.14418116206,0,2079,1738,4
-989.2243840258844,-116.98072855589527,100.94502277177872,321664.6040694042,127050.31178334485,201668.85700662286,0,1992,1787,4
-987.8840304984514,-117.86658658528583,103.29584863345578,321661.94336185744,126736.2381930036,201376.58755983846,0,1936,1824,4
-986.8844494521336,-118.84240505600677,106.2233755511966,321638.8871120389,126418.1660743565,201048.1462597408,0,1915,1868,4
-986.2562890154592,-119.86674996082593,109.72768772097646,321592.1044479385,126092.58815803795,200679.73000794757,2,1895,1876,4
-986.0286025777352,-120.89707792440555,113.79538572389124,321517.9267287658,125755.40544419958,200266.91048130346,0,1849,1894,4
-986.228819579652,-121.89215866125384,118.39977446091865,321412.48961013585,125402.1161927063,199804.66361205588,0,1754,1962,4
-986.8839694352812,-122.81369276853724,123.50312736617504,321271.9130877403,125028.07042982578,199287.38168074403,0,1717,2007,4
-988.0224965973098,-123.62718706146855,129.06042994200095,321092.5041827719,124628.74264690446,198708.85762366533,0,1631,2051,4
-989.6758843132868,-124.30194829997636,135.02311090906818,320870.96362661966,124199.9288216225,198062.28682902583,8,1652,2049,4
-991.8797862838147,-124.81057754241228,141.34172599809267,320604.5809141832,123737.78814481426,197340.30603828817,3,1640,2092,4
-994.674886943338,-125.12814579085669,147.96787224724818,320291.41467653395,123238.74930541305,196535.04269258268,5,1611,2117,4
-998.1073487606113,-125.23086946175806,154.85508883086362,319930.41558584635,122699.37935864768,195638.17487702996,0,1455,2231,4
-1002.2285031118516,-125.09465262283253,161.95833968189265,319521.44109563465,122116.26631983584,194641.00749212058,0,1442,2211,4
-1007.0938819708263,-124.6939698051352,169.23255647377454,319065.16480985796,121485.90125119779,193534.55117830346,0,1416,2240,4
-1012.7619543712087,-124.00146951796513,176.63086758396642,318562.94425846107,120804.60487062088,192309.6290615256,0,1390,2295,4
-1019.2929976653019,-122.9886252737547,184.10304499029095,318016.6846748721,120068.55355364255,190957.03599234472,0,1310,2327,4
-1026.7484124732393,-121.62711861467719,191.59442027913343,317428.6905337721,119273.88066698062,189467.723417583,3,1261,2360,4
-1035.1901338001744,-119.8900899233106,199.04514676650575,316801.56255818025,118416.81375913766,187832.98769899676,0,1187,2411,4
-1044.6792015032386,-117.75280777815321,206.38998016946485,316138.19804209616,117493.82081682883,186044.62724942277,0,1181,2431,4
-1055.2731021482987,-115.19303028323273,213.55869776948214,315441.85830776993,116501.75560277888,184095.02931493495,2,1186,2463,4
-1067.0228601328783,-112.19137154033166,220.47671482707065,314716.268946964,115438.01565437301,181977.24552880268,9,1114,2503,4
-1079.9714993339317,-108.73146379063316,227.06634161946596,313965.741159248,114300.69647769578,179685.09162277586,10,1088,2556,4
-1094.1541322635428,-104.79950435198788,233.24956712250565,313195.2754097004,113088.70760375563,177213.21540841006,0,1011,2570,4
-1109.5982082826804,-100.3834452665348,238.95130130158896,312410.60661722696,111801.85748899644,174557.1788454698,0,1003,2593,4
-1126.323364442707,-95.47236419727179,244.10155282529996,311618.1127397917,110440.87137880934,171713.5960594661,0,946,2587,4
-1144.34159600967,-90.05596567207218,248.63643756616497,310824.5293109362,109007.27818147159,168680.26332874942,0,929,2637,4
-1163.6572069515942,-84.12417490596053,252.49803277254648,310036.5929741846,107503.24705568477,165456.31808584026,0,851,2673,4
-1184.2654400593508,-77.66701387377407,255.63313077329863,309260.7136185724,105931.45568057716,162042.42602248854,0,828,2699,4
-1206.1498394754426,-70.67488229092469,257.9916142868779,308502.62828404875,104294.96445549575,158440.88707488103,1,754,2723,4
-1229.278761941021,-63.13959368138754,259.5252815362257,307767.10034931346,102597.17122627248,154655.73719283007,8,704,2767,4
-1253.6014422810624,-55.056288964759545,260.18765413819636,307057.75130942656,100841.93394948347,150692.96554115898,12,663,2789,4
-1279.0442093718439,-46.425720390437796,259.9350458604855,306376.961608438,99033.79826226154,146560.7946907202,7,674,2831,4
-1305.507800986563,-37.25639789458243,258.7294643572414,305725.7325156191,97178.21505981052,142269.8821596267,0,579,2834,4
-1332.8662487579002,-27.56646361503587,256.5434084796259,305103.44692808,95281.66696016857,137833.364236493,0,556,2853,4
-1360.9659088014157,-17.385292540627468,253.36437325469916,304507.58580729767,93351.69681224137,133266.90920211092,1,490,2876,4
-1389.6234066718375,-6.754708138363572,249.19626997790473,303933.44799086207,91396.77803132926,128588.84598139863,0,479,2888,4
-1418.6229983409498,4.2700997520792345,244.05749619795782,303373.84141768335,89425.96284210548,123820.19028426193,0,459,2893,4
-1447.7135875689162,15.619481867602213,237.97766307041795,302818.8304243004,87448.52267053258,118984.66014681717,2,427,2886,4
-1476.6059549209765,27.2080732532984,230.9941947415299,302255.62404311117,85473.76717150731,114108.75184784835,4,402,2894,4
-1504.9712967264613,38.933897550253036,223.1487134595863,301668.5385779937,83510.95535759904,109221.67617833316,9,424,2884,4
-1532.4403730060585,50.67782344570826,214.48431393752765,301038.9924872692,81569.30035178321,104355.25361618254,8,383,2882,4
-1558.602852941946,62.303475511245026,205.04525789227046,300345.53949096386,79658.13559559725,99543.85026288834,16,422,2851,4
-1583.0079411050845,73.65798641556141,194.87897246361214,299563.9126863529,77787.17888597606,94824.15494135831,15,437,2848,4
-1605.1665998501987,84.57289672399264,184.04012861978768,298667.0877950854,75966.86525109447,90234.95012365238,22,472,2849,4
-1624.5589850815493,94.86502073418022,172.59795365635563,297625.3876413036,74208.75547741687,85817.0312032639,16,548,2813,4
-1640.6515770181527,104.33857275280727,160.64632351121224,296406.58630033367,72525.91987952362,81613.08963550578,16,663,2714,4
-1652.9188943942177,112.78832507606144,148.31129080827162,294976.02040151536,70933.1113346249,77667.67445107624,15,747,2626,4
-1660.8648168428203,120.00299586743955,135.74847723179755,293296.98156765144,69446.45858226754,74027.38371802321,9,821,2523,4
-1664.0463032128052,125.76957989856776,123.12879073620557,291331.7560754012,68082.62325977458,70741.06553800934,3,920,2427,4
-1662.0974140160258,129.8796576116947,110.62074935165752,289043.39022706664,66857.91213338422,67859.8836293171,0,1095,2275,4
-1654.7499818636313,132.13949458796984,98.37643202095653,286398.4767633984,65787.76249946353,65437.01189078747,1,1282,2098,4
-1641.8520368896138,132.3859295407827,86.5202052458186,283371.212420072,64886.480178434766,63526.65137327707,0,1443,1998,4
-1623.3805886845441,130.51250846634133,75.14164001217028,279947.6784233055,64167.07245292769,62182.65941623594,10,1597,1846,4
-1599.437778106438,126.50818634379107,64.29568559934556,276129.27156326326,63641.062538188824,61456.9528262894,13,1689,1758,4
-1570.2238712627457,120.49475910133893,54.00536870999713,271935.3622370209,63318.106171970656,61397.403133538915,8,1781,1687,4
-1536.0000490510245,112.74212650122485,44.263016421636266,267405.21281424287,63205.41776321334,62045.799210445184,7,1846,1637,4
-1497.0582766198072,103.64917570238386,35.036504164433445,262598.91533564107,63306.93051568289,63436.86337263365,2,1846,1619,4
-1453.7012389679858,93.6936301312794,26.28524205828594,257597.24585362748,63622.02341573217,65598.32241079626,0,1888,1576,4
-1406.235200742582,83.374077636684,17.977832186417334,252500.1116907493,64144.08286199395,68551.3387468613,0,1885,1570,4
-1354.980733046105,73.1589551916131,10.099689649037138,247421.8237585692,64859.23471187897,72310.74052770213,0,1928,1537,4
-1300.2947877849958,63.43728821679819,2.6465769293358323,242481.98291844473,65745.38677638108,76884.86804660424,0,1944,1515,4
-1242.59042017393,54.47905495572817,-4.39188823477154,237795.19526952168,66772.15579602796,82275.10170213958,8,2013,1451,4
-1182.3437323786231,46.421509748604926,-11.052563828487672,233463.05117355243,67902.99394135126,88475.42912942368,4,2008,1452,4
-1120.0868111503273,39.27958815712791,-17.415117367520402,229568.32488868784,69100.06720288582,95472.41158922348,0,2011,1452,4
-1056.395273414196,32.968448655699504,-23.604017831493664,226171.867787892,70329.9812584851,103245.305622731,0,2011,1452,4
-991.8750463067882,27.336404915965495,-29.770585906921365,223313.19828478945,71568.2252138891,111766.14416877023,0,2010,1455,4
-927.1452743962017,22.211770824779087,-36.06108873585859,221013.70516877138,72801.94749605768,121000.02288552905,0,2009,1455,4
-862.8212289543648,17.452212884818962,-42.587236330802384,219280.53305984344,74030.56329104885,130905.50533064075,0,2009,1452,4
-799.4996856444868,12.981045186518417,-49.40974800410344,218110.59891431648,75263.18760877315,141435.49038902888,0,2007,1456,4
-737.7412452846129,8.805794580465056,-56.530120411376096,217495.11995106848,76513.45475724927,152539.2142098981,0,2007,1458,4
-678.0550141288356,5.0156500927860534,-63.88719807681126,217423.51736151872,77794.37490940435,164164.43995879576,0,2009,1455,4
-620.8957398000821,1.754327912384471,-71.36698049806786,217884.91114868972,79115.22123736207,176258.79362822048,0,2010,1452,4
-566.6708576280016,-0.8239665030343073,-78.82844906797237,218867.275218459,80480.14501573406,188770.64234871304,0,2010,1452,4
-515.7494908376964,-2.5938980341428075,-86.13109757904404,220355.69335046443,81887.89810450848,201649.44740615663,6,2009,1451,4
-468.4672117070899,-3.4783165456678278,-93.15098022176673,222330.89113110994,83332.90446449645,214845.50413471065,4,2010,1453,4
-425.12526586571204,-3.450750932942295,-99.7862291834385,224768.38363923554,84807.66728312093,228309.79475944125,0,2009,1452,4
-385.98943579295815,-2.5290375454474727,-105.9560304708429,227638.2119518386,86305.38127943144,241993.8622099941,0,2003,1455,4
-351.29121013732055,-0.7637976447433281,-111.59425797598261,230905.36511157488,87821.70918615912,255849.54605456287,0,2009,1454,4
-321.22960870273533,1.776110095857614,-116.64101013604416,234530.78522244692,89355.72789325703,269829.1628574403,0,2009,1452,4
-295.97366687168716,5.016726723844827,-121.03666951767087,238472.35019094613,90910.14583406929,283885.82590352796,0,2006,1452,4
-275.6645860651701,8.887105134064296,-124.71993124248455,242685.56217561022,92490.74683374543,297973.57756239735,0,2009,1452,4
-260.41511746066533,13.323202017906793,-127.62862175791085,247124.22339471828,94105.35392640327,312047.84640116506,0,2008,1453,4
-250.307313491337,18.268394432756114,-129.70207597043807,251740.95646962323,95762.79320920604,326065.86447649956,0,2010,1452,4
-245.39101955763212,23.6700054473529,-130.8846306331739,256487.38257653473,97472.13214953452,339986.740106319,0,2008,1459,4
-245.68319563640338,29.47233330947126,-131.13051435556056,261314.25006313733,99242.16196762325,353771.80719806446,0,2008,1454,4
-251.1678028231524,35.608940579185976,-130.4086730224226,266171.598152121,101081.06268756019,367384.9080078714,0,2008,1453,4
-261.79667958298825,41.99726830797297,-128.7048490458169,271009.0602431271,102996.28223694282,380792.17950724345,0,2008,1454,4
-277.4914779888712,48.53644686371292,-126.02084055443711,275776.5459244262,104994.58100015484,393961.91923199187,0,2006,1454,4
-298.1458935876996,55.10765195090406,-122.37281788740813,280424.94761693047,107082.03480916272,406864.4464721578,1,2009,1453,4
-323.6281786626354,61.57622415109151,-117.78960752962594,284906.6434991929,109263.86257578719,419471.7680909509,0,2008,1455,4
-353.78436301419026,67.79464009167927,-112.31118118165992,289176.1311663242,111544.13652164555,431757.5293329362,0,2006,1455,4
-388.4406973610222,73.60482421972453,-105.98774557293224,293190.69229860755,113925.45425660026,443696.9555446368,0,2006,1456,4
-427.4043881873444,78.83897573987576,-98.87863469822527,296910.9153041596,116408.68552744885,455266.41796840285,0,2006,1455,4
-470.4635982917888,83.31964063126544,-91.04993623875428,300301.28298907087,118992.89714092428,466443.0333286217,0,2006,1455,4
-517.3880529097748,86.86014905624042,-82.57239264915118,303330.6115373013,121675.33378982001,477204.18726322456,0,2006,1455,4
-567.9308589896619,89.26615226829014,-73.52183883431553,305972.0227397271,124451.32915617371,487526.80214188894,0,2008,1453,4
-621.8290297622111,90.3380043164854,-63.98150523461584,308202.6445019141,127314.22051776179,497386.77169221814,0,2009,1455,4
-678.8013082065123,89.873307001831,-54.043867199301985,310003.26443752984,130255.31357109078,506758.5309168542,0,2008,1453,4
-738.5460100658667,87.66923218051811,-43.81046968589129,311358.0080323341,133264.0313030083,515614.6863608444,0,2008,1453,4
-800.7395091594241,83.52376756404723,-33.38950668551941,312254.1277805503,136328.3921227718,523926.03272538347,0,2008,1455,4
-865.0355904205884,77.23516624740321,-22.89292779201082,312681.912807751,139435.50854698627,531661.6822321697,0,2008,1455,4
-931.0675607356151,68.60044653783865,-12.434963445298028,312634.68260249775,142571.81845762333,538789.0335052424,0,2006,1457,4
-998.4502730655694,57.414779367992814,-2.132205676331596,312108.8669240695,145723.1943649396,545273.8775644976,0,2008,1454,4
-1066.7793040547517,43.472797503553785,7.895677077738205,311104.24847882736,148874.99915335845,551080.5124759201,0,2006,1454,4
-1135.6291080711626,26.5715891442181,17.526383272945463,309624.50406216754,152012.06764814764,556171.604525907,0,2006,1454,4
-1204.549578521688,6.514830541782264,26.63806448242603,307678.04207960516,155118.69094474887,560508.0235633056,0,2005,1456,4
-1273.0619513664562,-16.88153788458028,35.11601752787104,305279.0528490932,158178.64051376833,564048.9936820135,0,2005,1456,4
-1340.6593286000993,-43.78111337481204,42.86253934311253,302448.6800086257,161175.20522854195,566752.6774932402,0,2010,1453,4
-1406.8113619241526,-74.31666028312661,49.805536859998774,299215.96595566033,164091.09835624092,568576.8231266885,0,2009,1455,4
-1470.970982380078,-108.57865777040895,55.90215006778446,295618.0592796066,166908.2022639474,569479.1644607306,0,2006,1457,3
-1532.5845070735909,-146.60403709861777,61.13843412866024,291699.5844870198,169607.34831202714,569417.8211347045,0,2002,1460,3
-1591.1013299733272,-188.36766073038513,65.52693044801781,287511.7164315891,172168.1983582117,568351.8889268787,0,1996,1470,3
-1645.9818685065018,-233.77812933430224,69.10251818063654,283111.2435079221,174569.2664099271,566242.3189269798,0,1980,1474,3
-1696.7090639562823,-282.67521827810947,71.91748104751973,278559.4051525878,176788.2068584838,563053.200305899,0,1972,1489,3
-1742.8002031611486,-334.82449207615576,74.03815208736941,273920.79361891374,178802.2562985236,558753.1540815261,0,1956,1498,3
-1783.814472031899,-389.9089710391408,75.5443035926271,269262.507113603,180588.77745817395,553316.548357454,0,1952,1501,3
-1819.3615110032185,-447.5210472691563,76.52921981748639,264653.1134392793,182126.0353634338,546724.6925149106,0,1953,1506,3
-1849.1136095277495,-507.1563654103154,77.09777127390136,260161.5127101283,183394.01064229233,538967.1637713878,0,1957,1495,3
-1872.8214211101902,-568.2127147307082,77.36184163354376,255855.82142116627,184375.17912594194,530043.1862962489,0,1953,1500,3
-1890.334070636291,-629.996758324954,77.43486578428677,251801.9364463708,185055.51872169817,519963.00969165144,0,1970,1485,3
-1901.6157799223938,-691.7338011523123,77.42864185794272,248062.11335067943,185425.53491971188,508749.30140941613,0,1953,1500,3
-1906.7496039174478,-752.5773439805149,77.45316974132764,244693.81981577055,185480.87301835296,496438.20353073295,0,1941,1510,3
-1905.9298779194976,-811.621466437558,77.61645320517543,241748.3936544121,185222.48321176763,483079.658149114,0,1929,1521,3
-1899.4526362813808,-867.9127116695714,78.02244820107201,239269.6019933426,184656.4273027011,468737.4087630738,0,1920,1531,3
-1887.7116731378383,-920.4593359738211,78.76831250159857,237292.2299577596,183793.35918828554,453488.70683512226,0,1921,1531,3
-1871.1986426169408,-968.244244678675,79.94094809845818,235840.25386104314,182647.89576904342,437423.0709953187,0,1925,1530,3
-1850.4989746465906,-1010.2425080712553,81.61273559358436,234924.92432090954,181238.25839669254,420640.7084289999,0,1923,1526,3
-1826.2702747482278,-1045.4444498247867,83.83956168594928,234543.35015029396,179586.2316362406,403251.07773479016,0,1918,1535,3
-1799.1936600158497,-1072.8870953683472,86.66408307306504,234677.30008490285,177717.12831047788,385370.8916226183,0,1922,1524,3
-1769.915995375459,-1091.6883963650862,90.11855158400236,235291.98623209892,175659.7325222811,367122.4829888989,0,1948,1509,3
-1739.0134939737368,-1101.0932963480443,94.2178734861665,236335.45787823005,173446.53620136683,348634.4266441742,0,1958,1495,3
-1706.9860253038435,-1100.5469626426705,98.95013937481319,237739.840311853,171114.31478044295,330043.8930015697,0,1948,1511,3
-1674.2738151761,-1089.7719507074476,104.27732709262389,239424.68265267505,168704.61632916756,311498.47864790505,0,1964,1497,3
-1641.2825727330173,-1068.8154342957791,110.14062439130124,241300.98899976382,166263.4908232309,293155.947375029,0,1954,1503,3
-1608.402850608306,-1038.065779340745,116.46249374112597,243275.74732266035,163839.48262302147,275179.8392458048,0,1958,1498,3
-1576.0150214916341,-998.2456922570715,123.14711153808948,245258.0418349161,161479.72451272118,257730.07330999844,0,1963,1495,3
-1544.4771629835438,-950.3707486794171,130.07862261250963,247165.35257676613,159225.95445960734,240953.1442567293,0,1960,1498,3
-1514.101875209339,-895.6724962944057,137.11476747292983,248927.98735425173,157111.9866869782,224976.3999818116,0,1952,1505,3
-1485.1345009525965,-835.5210643466472,144.07862542242026,250491.65409217513,155162.34091070318,209905.63199387488,0,1949,1503,3
-1457.7338751595842,-771.3729422844746,150.75385985629413,251818.05123346607,153391.8348048981,195824.5203945893,0,1965,1489,3
-1431.9489131826206,-704.7359419142218,156.88432077687438,252883.21391208126,151806.49460888404,182795.61166425905,47,1988,1477,3
-1407.7001632172241,-637.1489865687441,162.17623022275822,253674.83855643452,150405.62758620462,170862.4209549691,273,1986,1473,3
-1384.7851906404926,-570.1747999983877,166.30874843245397,254189.94919854944,149184.94910277482,160052.19711277762,1072,2000,1463,3
-1362.9119741684285,-505.38654428390845,168.96101496693916,254433.4732013271,148140.76696237497,150378.32685160966,2127,1998,1470,3
-1341.7439942352437,-444.3280057835786,169.84927789997917,254418.08728772763,147274.01045177272,141841.38331313245,2703,2004,1460,3
-1320.9438847443807,-388.40430404744023,168.7641085157824,254165.48698863294,146592.3942301028,134428.9776587722,2821,2009,1455,3
-1300.2214989472834,-338.67928309652234,165.61390311602054,253709.90505594475,146109.74409191555,128114.93179918917,2661,2011,1455,3
-1279.3866439886433,-295.67473105458294,160.4818342239278,253104.62093999825,145842.37782558642,122858.16062702952,2670,2013,1450,3
-1258.3940234165702,-259.30800064917884,153.67365341838945,252427.86932521567,145803.83111823857,118602.59434888256,2587,2016,1453,3
-1237.3683213895763,-229.0149018219393,145.70763295290044,251780.51880709422,145999.09366607247,115279.78619874934,2522,2013,1451,3
-1216.5907066482018,-203.99495029159095,137.23200288570317,251272.58836257615,146418.7933986148,112813.81194739086,2440,2011,1453,3
-1196.4411216763242,-183.43461679532834,128.91776192937817,251005.6379279295,147035.06791405898,111126.25388190495,2343,2018,1454,3
-1177.3151524416442,-166.6092429217607,121.3649020775375,251059.19920768298,147801.25052778918,110140.34484225766,2367,2016,1453,3
-1159.5363574891378,-152.88804481383855,115.01907520012652,251483.06762079016,148655.73891722062,109784.570740022,2334,2016,1454,0
-1143.2917598618214,-141.70684644774556,110.1150886577055,252295.51226911508,149528.6626527124,109994.79478331824,2417,2019,1453,0
-1128.6118592639236,-132.5505160909651,106.68169336266695,253487.69774906852,150350.67770580112,110713.869891742,2440,2013,1455,0
-1115.3923419716014,-124.96117303853678,104.60552504763018,255031.73213146295,151063.5610894533,111889.78813963383,2441,2018,1452,0
-1103.4440119263338,-118.56410778550557,103.71241710123222,256887.45605348612,151628.9632548663,113474.5324247203,2506,2020,1452,0
-1092.5485629163356,-113.09148341253196,103.82433191186045,259005.66584783528,152031.4890323761,115424.39668687098,2526,2026,1453,0
-1082.5040008907135,-108.38805863486424,104.78324012958197,261330.41249159724,152275.78418529872,117700.8220403642,2501,2058,1455,0
-1073.1588881225996,-104.39644566923272,106.45803489573882,263803.2802570039,152379.41941935205,120270.69916330178,2520,2061,1451,0
-1064.4290764264267,-101.130077278474,108.74463501044667,266368.7215616566,152365.1919109538,123105.67641183028,2487,2062,1449,0
-1056.2883653753602,-98.63944055779164,111.55547631840099,268978.52147980593,152255.52509013776,126180.48248525921,2436,2047,1451,0
-1048.7411235858692,-96.97378711981986,114.79700905729005,271595.01232944865,152068.6594784497,129470.71945627671,2351,2070,1452,0
-1041.796735101975,-96.14929061868638,118.34744501511007,274192.57467291795,151816.55636869816,132950.94543386268,2239,2059,1454,0
-1035.4561675773186,-96.13282821815282,122.05013224552924,276756.87789220165,151505.3264107515,136593.67710614981,2146,2045,1451,0
-1029.706591919272,-96.83896116022675,125.72599792020108,279282.4956370422,151137.7583242879,140369.2666601872,2018,2038,1455,0
-1024.5203722338613,-98.13619934940589,129.19569359746018,281770.0544538299,150716.20079218232,144246.21244251984,1910,2034,1453,0
-1019.8586699005417,-99.86100125869491,132.30117060821598,284223.24691469857,150244.35794009772,148191.76184095358,1692,2045,1458,0
-1015.6775387165634,-101.83672447262784,134.9217683329224,286645.5693201652,149727.7175089879,152173.01409546717,1563,2042,1459,0
-1011.9325159499479,-103.89108037487811,136.9806572495949,289037.6227084437,149172.90397120293,156158.2195224726,1391,2041,1462,0
-1008.5803259347916,-105.868460804749,138.4398412240916,291395.90492575575,148586.65996824234,160117.56655851426,1211,2047,1454,0
-1005.579713657649,-107.6392473105532,139.2885554923398,293712.9944372745,147975.19786712024,164023.42047343953,1123,2064,1461,0
-1002.8932114245368,-109.10604162216761,139.53358409103237,295978.6264297863,147344.02689184147,167850.4352691733,1009,2047,1464,0
-1000.4893786977124,-110.20515762932132,139.196453411097,298180.9584372433,146698.0685269199,171575.56551557453,847,2056,1459,0
-998.3441573748353,-110.90378380244582,138.31489018179528,300307.61825992016,146041.87881973403,175177.94676264483,723,2047,1478,0
-996.4404521452454,-111.1944632620971,136.94322432754518,302346.7033949745,145379.75320219857,178638.84720982393,673,2043,1504,0
-994.7658741845839,-111.08981756567773,135.14954642998262,304287.60169186717,144715.63625541332,181941.664181821,505,2002,1528,0
-993.3092277486385,-110.61882833726898,133.01070622769132,306121.4143204869,144052.95433328775,185071.93217997704,442,2025,1523,0
-992.0570546598406,-109.82314827369045,130.6074541215511,307841.18030189147,143394.52859087946,188017.50023365518,349,2018,1539,0
-990.9922743367415,-108.75286005661881,128.0217847892599,309441.97898451384,142742.65105607337,190768.7419873601,292,2021,1521,0
-990.0958862863727,-107.46198261284994,125.33599733855547,310920.8292788003,142099.2444009721,193318.59442939123,282,2013,1531,0
-989.3503864101546,-106.00355382777366,122.63092432139808,312276.45278179925,141465.94888838232,195662.50791187133,256,1995,1551,0
-988.7423304499024,-104.42560401881113,119.98260263920024,313508.97473814525,140844.09695432146,197798.3221401843,192,1982,1572,0
-988.2623880133065,-102.76973621177636,117.4581993991792,314619.5877225307,140234.62943069788,199726.02345526792,166,1955,1580,0
-987.9035192598085,-101.07198178703015,115.11188640247939,315610.2233022103,139638.01638711453,201447.48042051535,113,1956,1596,0
-987.6593113228429,-99.36457036686669,112.98234951641008,316483.2900558285,139054.26955060902,202966.20622024074,56,1975,1597,0
-987.5237747306281,-97.67777601901219,111.09356824208973,317241.5356373561,138483.08556021648,204287.12801627265,62,1969,1601,0
-987.4921594373162,-96.04155153995208,109.45809402676399,317888.0400817385,137924.04132069205,205416.38222769828,64,1967,1595,0
-987.5616537325257,-94.48651576216885,108.08069323951537,318426.27136829525,137376.73442716495,206361.1284082256,6,1986,1592,0
-987.7315251882335,-93.04387235486132,106.96148155184727,318860.1545824156,136840.81624438424,207129.34831035687,10,1971,1614,0
-988.0028782661684,-91.74446776646501,106.0986286908008,319194.14456752717,136315.93202093247,207729.63397928388,0,2006,1586,0
-988.3780957054611,-90.61732979804425,105.49020485391205,319433.2651398165,135801.64219188507,208170.9901517115,0,2018,1603,0
-988.8600304507167,-89.68802842876686,105.13503510647655,319583.0989000249,135297.37582638467,208462.66769528468,0,2007,1607,0
-989.4513894802983,-88.97741512137902,105.03309757827512,319649.74035632465,134802.41066979428,208614.02758333494,0,2005,1619,0
-990.154750773338,-88.50062816659842,105.18586729025785,319639.69100611424,134315.88148457062,208634.40013018856,0,2036,1604,1
-990.9730923473867,-88.2659045356037,105.59665912857707,319559.6878533508,133836.82667000833,208532.89812471718,0,2051,1593,1
-991.9105516228142,-88.27363690889835,106.27086251423081,319416.52867500926,133364.2543846609,208318.21047905754,0,2045,1632,1
-992.9735348811869,-88.51645068638037,107.2157591233441,319216.9291331076,132897.15645331104,207998.4114787706,0,2080,1616,1
-994.1718545153948,-88.98035443578847,108.43925315408245,318967.36785352766,132434.4128911306,207580.77394060686,0,2075,1615,1
-995.5189554607425,-89.64642974063923,109.94760642814072,318673.9398577881,131974.65359229673,207071.6187865416,0,2094,1623,1
-997.0310144828384,-90.49279551596294,111.74352900194191,318342.30229354504,131516.1804938472,206476.22014909767,0,2075,1633,1
-998.7255521332246,-91.49663643563112,113.82554788016047,317977.71630484547,131056.9778937816,205798.71359132582,0,2073,1642,1
-1000.6203171371769,-92.63552347273678,116.18846589533662,317585.12311411975,130594.79771121976,205042.02080670992,0,2066,1655,1
-1002.7330955620268,-93.8877367761838,118.8245495606218,317169.19556154317,130127.26720430997,204207.8440196449,0,2035,1689,1
-1005.0826685702024,-95.23218469799048,121.72509880971658,316734.3394586117,129651.94302667046,203296.71962153964,0,2066,1667,1
-1007.6902722503122,-96.64827170427498,124.88157009466761,316284.6688160537,129166.29804128436,202308.1168697959,0,2073,1699,1
-1010.58065839241,-98.11561260280071,128.2856387651849,315823.9701635852,128667.6650319642,201240.57663780378,0,2069,1703,1
-1013.7825641217471,-99.61370462827232,131.92860417428483,315355.65133564814,128153.15004223987,200091.8701533804,0,2079,1715,1
-1017.3288661739604,-101.12197679582805,135.80075517669013,314882.70624807995,127619.56633914656,198859.17471450887,0,2066,1737,1
-1021.2566546126194,-102.62024768386183,139.89083182542825,314407.7164932189,127063.4393228292,197539.26780484963,0,2052,1760,1
-1025.6073795876928,-104.08908728287881,144.18557201700682,313932.87552379095,126481.06429491902,196128.72708660446,0,2021,1789,1
-1030.4271568862712,-105.51032816733785,148.66894392410464,313460.0493953259,125868.56459551593,194624.10152994402,0,2024,1771,1
-1035.7668752923348,-106.86890818726486,153.31998276072105,312990.90029859135,125221.90122890021,193022.02251837237,0,2020,1818,1
-1041.681011488171,-108.15470963546683,158.10975765336806,312527.07528046006,124536.85546404736,191319.28120045835,0,2046,1807,1
-1048.2246330035462,-109.36020766894086,163.00084705415293,312070.46258830937,123809.08908271838,189512.8481951924,0,1983,1877,1
-1055.4503048371573,-110.4739036287595,167.95110947074323,311623.48152150225,123034.34923904993,187599.7728532205,0,2011,1900,1
-1063.4071507539313,-111.47464616624963,172.91871818917426,311189.2626851115,122208.74338665469,185577.06818604333,0,1971,1947,1
-1072.1421384236812,-112.32965459697895,177.86466646028913,310771.5365486924,121328.91363559442,183441.6763011522,0,1913,1981,1
-1081.7019043184546,-112.99541920711268,182.75228328232458,310374.2439224184,120392.04504662329,181190.44798276052,0,1854,1993,1
-1092.1332740413402,-113.42020024856077,187.54548177163224,310001.13769706746,119395.82830442821,178820.16024887268,0,1841,2047,1
-1103.4820664200902,-113.54717078343651,192.2076625596868,309655.5552271785,118338.4952125592,176327.5943118617,0,1763,2109,1
-1115.791403102867,-113.3173037817784,196.7022573424906,309340.29054849595,117218.93195889755,173709.5823319486,0,1737,2171,1
-1129.1007456620405,-112.67117193045713,200.99421083240512,309057.50035794405,116036.8342384692,170963.06678218063,0,1611,2244,1
-1143.4462668921765,-111.54986002734323,205.05129763380958,308808.62654059386,114792.8189637416,168085.21945760126,0,1629,2300,1
-1158.8617044047612,-109.89579244780394,208.84478607717608,308594.28561810387,113488.40286660945,165073.53782256102,0,1527,2347,1
-1175.3774395998416,-107.65358192611139,212.3490943837568,308414.1597091445,112125.90826608926,161925.96266676558,0,1414,2411,1
-1193.0169782563557,-104.77079140700643,215.54072648700964,308266.98346328374,110708.40929226152,158641.10054172072,0,1415,2436,1
-1211.7925268080178,-101.19867429920279,218.3976444191972,308150.62164270703,109239.73168975157,155218.5012456958,4,1334,2510,1
-1231.701975760811,-96.89281057179238,220.9000998042574,308062.15848168137,107724.44069381645,151658.8737139498,11,1353,2533,1
-1252.7277297441833,-91.81343486873465,223.03282198932516,307997.9367390928,106167.75009413643,147964.1682295395,0,1192,2594,1
-1274.8357247376748,-85.92525192285707,224.78697371210842,307953.5133148357,104575.38708846086,144137.64826588056,0,1135,2626,1
-1297.9738732663182,-79.1966407077401,226.16015039327297,307923.49964667985,102953.39775365936,140184.01574150746,0,1100,2665,1
-1322.0705340726142,-71.59893772940767,227.15425091086513,307901.28176515247,101307.80291555122,136109.47393680937,0,1051,2712,1
-1347.032669514071,-63.10719859552423,227.7723183652297,307878.70811491285,99644.24490491637,131921.82050279158,2,927,2740,1
-1372.743505418332,-53.703220388385716,228.01463190107043,307845.8161803663,97967.77036567265,127630.65355029253,12,887,2789,1
-1399.0605168179618,-43.38036130266592,227.87352724547227,307790.59193954954,96282.66826159069,123247.5488275738,0,770,2816,1
-1425.813282847649,-32.14890251681727,227.32817809599635,307698.83082790533,94592.38358498717,118786.24201718102,0,831,2810,1
-1452.800103634638,-20.041270390030476,226.34113446868201,307554.2375442226,92899.59843170017,114262.8340152568,0,734,2842,1
-1479.783670408811,-7.116995736808928,224.85662283764984,307338.7846121334,91206.44782039485,109695.86135053542,0,644,2871,1
-1506.4865955806836,6.533521027031743,222.80062965745813,307033.1782437846,89514.85814543675,105106.33418089099,9,567,2893,1
-1532.5873226555152,20.78716155284286,220.08350312450568,306617.32469730196,87827.06846815975,100517.79762738103,4,512,2907,1
-1557.7168506841942,35.48772243264979,216.60486116689512,306070.80264324247,86146.32507464898,95956.22522505648,1,477,2929,1
-1581.4575607303,50.44739037328667,212.2612259618373,305373.257530474,84477.59926253639,91449.86740184345,13,405,2915,1
-1603.3454819322963,65.45068201647447,206.9572758444602,304504.63233363343,82828.20174319121,87029.26381039782,16,376,2915,1
-1622.8758186236985,80.25861235712385,200.6183526136263,303445.27272678656,81208.3032921163,82727.35394012058,8,392,2906,1
-1639.5153180204009,94.61063402903545,193.20159261122836,302175.88613460807,79631.33566081234,78579.5958115859,16,450,2871,1
-1652.7254676177936,108.22501426003477,184.70518765394732,300677.3345371254,78114.17355041308,74624.08006239234,14,538,2808,1
-1661.9888559657782,120.7993117508238,175.17370896266584,298930.51466991066,76677.02848300303,70901.75083100774,6,720,2735,1
-1666.8314328990805,132.01517724905742,164.6955981783572,296916.8171932486,75342.85746622857,67456.72244465786,0,827,2628,1
-1666.8443387111151,141.5525489679131,153.39103566421764,294619.43897681823,74136.20601105719,64336.45726204223,0,1010,2427,1
-1661.7048927536352,149.11004299732411,141.3967014919534,292025.4050440581,73082.04295253845,61591.78864280672,1,1098,2309,1
-1651.1922215317154,154.4276558028829,128.85771328640791,289128.4287175052,72205.07020536772,59276.70905976533,17,1249,2156,1
-1635.1975803505197,157.3143979269198,115.92770318166865,285932.65016364824,71529.24427197609,57447.57981169958,10,1404,2019,1
-1613.7269916028747,157.67763171577354,102.77046975383763,282456.05263204355,71077.18094461464,56161.75718852012,12,1587,1832,1
-1586.888471413542,155.54713585237346,89.55705381203832,278732.43687455537,70869.23380213234,55475.54352190443,13,1690,1775,1
-1554.8632556733885,151.0900048439718,76.45636920409135,274812.31515682634,70922.12342480573,55441.36600520087,7,1788,1684,1
-1517.8760394387966,144.60942743925958,63.626381379474104,270763.3534000653,71247.447450822,56105.258553573825,2,1808,1675,1
-1476.178491787749,136.51823166904487,51.21441994762031,266669.69720157783,71850.14469523476,57505.76426045509,5,1818,1634,1
-1430.0471912459104,127.2893700942097,39.36356581374222,262629.0015390433,72726.6160608809,59673.90854746797,2,1868,1587,1
-1379.7919520441844,117.40389209334344,28.215066888298416,258747.44796345237,73862.97227241374,62633.325523985375,3,1894,1563,1
-1325.767519634517,107.30936015454088,17.899696313158763,255132.80478991955,75234.44865454015,66400.16167319354,8,1928,1527,2
-1268.3817804468276,97.38328340684156,8.51714030771189,251885.1690360679,76806.4613753197,70982.91533947118,0,1944,1511,2
-1208.0996459412,87.90549265524554,0.11278777359774528,249088.25736095777,78536.96243465405,76382.41614709448,0,2001,1455,2
-1145.441452180245,79.0504369940968,-7.3357406546943835,246804.27767264243,80380.19493458772,82592.15267388502,0,2011,1453,2
-1080.974115474462,70.89733477725515,-13.918704412201587,245071.8479246641,82292.11047156418,89598.98188981978,5,2011,1452,2
-1015.2999003117029,63.44914417020265,-19.782289429345408,243906.08430853352,84235.7764697908,97383.60201758481,0,2012,1453,2
-949.0446740612729,56.65966491480955,-25.1033261015169,243301.1795022301,86184.87320399891,105920.50883812351,0,2013,1453,2
-882.8424951582134,50.47224848999782,-30.053782844819345,243235.05653502938,88125.16318384343,115177.99882477966,0,2012,1455,2
-817.3206863211398,44.86002833209845,-34.769258726279126,243674.29270818204,90053.90018600521,125118.4330503625,0,2011,1455,2
-753.0864500651929,39.85056886548027,-39.332272100049785,244578.3871892121,91976.62276630818,135699.0410495515,0,2011,1452,2
-690.7108639700988,35.52711822696099,-43.76952813874911,245903.83886522072,93901.93504005288,146873.69759519253,0,2006,1455,2
-630.7171825063558,32.009765329059846,-48.060336526976826,247607.2859852567,95836.69675086241,158594.7131304965,0,2008,1455,2
-573.5793486707886,29.425173859788014,-52.155409614486736,249646.63397589803,97783.54682080398,170813.79408630394,8,2008,1453,2
-519.7243917652735,27.872996878783525,-56.00228159309833,251980.83985891275,99740.53546111893,183482.73020402744,0,2010,1452,2
-469.5347004284548,27.400595498390064,-59.56629855437097,254569.53768268516,101701.91412146315,196553.75351010333,0,2010,1453,2
-423.35048082961197,27.996096936030202,-62.83820548445818,257373.2351377959,103659.69097215545,209979.30421305553,0,2009,1454,2
-381.47063104428696,29.59632859200778,-65.82984958060445,260354.32545267892,105605.70297480405,223711.73695896036,0,2010,1453,2
-344.15272172730863,32.098973489680446,-68.56421407733275,263478.3393507718,107533.35885089118,237702.95398171138,0,2005,1453,2
-311.61420120522064,35.37357757986093,-71.06465411926621,266714.7854743647,109438.44376437672,251903.99408170406,0,2009,1452,2
-284.0339932197158,39.27229982654037,-73.34622258506204,270037.51977874275,111319.31388353556,266265.05866720283,0,2010,1452,2
-261.55397201555047,43.63999008199985,-75.41115683311038,273424.63164591574,113176.81648227491,280735.51003737096,0,2007,1452,2
-244.28031645197638,48.322889033214594,-77.24836297947493,276857.83194115415,115013.97365385063,295263.7120465577,0,2009,1451,2
-232.28407000911068,53.17791030374196,-78.83443400569467,280321.5532406294,116835.5269495168,309797.51376187534,0,2010,1455,2
-225.6017139036703,58.08095694081177,-80.13490538759666,283801.96892899275,118647.45410141935,324285.0199870549,0,2008,1454,2
-224.2367153142304,62.930272443637236,-81.10650281780141,287286.0627772584,120456.52388309753,338675.24366084236,0,2008,1452,2
-228.1614536911577,67.64481239324098,-81.70061674893033,290760.85067373305,122269.92043296268,352919.1834716316,0,2009,1455,2
-237.3189619321844,72.16005499570822,-81.86641955615511,294212.79763525474,124094.92107904547,366970.7686509886,0,2010,1452,2
-251.62517090992137,76.42196449100511,-81.55279199222119,297627.44487050833,125938.59241109603,380787.1150545871,0,2008,1453,2
-270.97192367343644,80.37905495741006,-80.70979253445928,300989.2158841249,127807.48386290373,394328.73962419777,0,2007,1454,2
-295.2290232614245,83.97482940351458,-79.29020252398294,304281.2253216775,129707.3138298963,407559.5863902958,0,2006,1455,2
-324.2446677055416,87.14284167862141,-77.2518537728581,307484.99318583484,131642.70884262785,420446.55968689505,0,2007,1456,2
-357.84571912780143,89.80367091330052,-74.56117690034765,310580.18025735754,133617.0808139636,432959.1350903442,0,2005,1455,2
-395.83794651797115,91.86300641644637,-71.19682773566069,313544.3877988106,135632.61579882595,445068.9690248146,0,2008,1454,2
-438.0068281334543,93.21183752466418,-67.15244808516432,316353.08825071814,137690.37585289756,456749.2889207367,0,2010,1455,2
-484.1202134535948,93.7294245665671,-62.43883288791309,318979.8159334856,139790.55359294685,467974.4872804144,0,2009,1453,2
-533.930360138174,93.28764152375012,-57.08553166407406,321396.44588673924,141932.69392264873,478719.76496776025,0,2008,1455,2
-587.1734141655442,91.75458719174206,-51.14137305194395,323573.39894202765,144115.7497883141,488960.6233608773,0,2006,1454,2
-643.5681801812678,88.99647445746767,-44.67366507504438,325479.8893432654,146338.11868803765,498672.59120321623,0,2009,1454,2
-702.8143725798208,84.8770894378332,-37.766609648625355,327084.1971135274,148597.73559253116,507831.02855922515,0,2009,1455,2
-764.5913850171014,79.25360416773879,-30.519158051014262,328353.9923900048,150892.28261319184,516410.81444165413,0,2008,1454,2
-828.5603604447869,71.96930795803142,-23.04187454473862,329256.91620499827,153219.59432749913,524386.259632522,0,2008,1453,2
-894.3667919930269,62.84767985679889,-15.453336170829665,329761.3277849672,155577.9773702542,531731.0526240573,0,2007,1453,2
-961.6406479074975,51.69240151339889,-7.87633994164301,329837.1821248473,157966.08627309746,538417.9389288911,0,2004,1455,2
-1029.9957698849441,38.29322776785942,-0.4337317908333221,329457.24203848245,160382.38097611026,544418.3830666963,0,2009,1453,2
-1099.0273255556633,22.433927596547992,6.755110972474548,328598.4887767823,162824.39781225272,549702.250722331,0,2008,1455,2
-1168.306688568866,3.8998361572359483,13.578079983968854,327243.7036290382,165288.03284053842,554237.5551750024,0,2006,1454,2
-1237.3788136498783,-17.51429396462144,19.936773486824666,325383.4164537906,167766.95387972146,557990.5771690413,0,2009,1452,2
-1305.7630689011255,-41.995481348850376,25.753546391181743,323017.71974042314,170252.17494344836,560926.1649905107,0,2008,1455,2
-1372.9555476833225,-69.70291535097228,30.975417810983508,320157.24014295347,172731.82865678082,563007.9049670593,0,2009,1450,2
-1438.4341810315211,-100.75814351882464,35.57465148037874,316823.32334819477,175191.1510401234,564198.3484363222,0,2012,1452,2
-1501.665004247231,-135.23723607373853,39.547492948002905,313047.89362749516,177612.5575449028,564459.4186788347,0,2008,1456,3
-1562.1097691459515,-173.1667898811229,42.91206029174399,308873.0753523355,179975.7844580397,563753.0383246505,0,2009,1455,3
-1619.2388978600072,-214.52221649534317,45.70639343777781,304350.43451718905,182258.18584219998,562042.097321272,0,2004,1461,3
-1672.5442827878323,-259.22359640661136,47.98736794320211,299540.12184749957,184435.04176068914,559291.5319829994,0,2003,1457,3
-1721.5456589719859,-307.1247141392387,49.829956489987346,294509.96273944486,186479.83131763415,555469.2750608741,0,2002,1460,3
-1765.7947535981518,-357.99564056613485,51.32559434751205,289334.1017124847,188364.68079354966,550547.2360415708,0,1997,1465,3
-1804.8808894736885,-411.50493333355064,52.57927146040543,284091.4529321534,190060.94681788364,544502.47333101,0,1993,1467,3
-1838.441538299947,-467.2089365500446,53.70578705887363,278863.9045398728,191540.00584378417,537318.6312313207,0,1996,1466,3
-1866.1814983928984,-524.550500960253,54.82602827123238,273733.646709131,192774.54882488385,528987.6858168205,0,1993,1471,3
-1887.892592760338,-582.862734997658,56.06510939358848,268780.2761856234,193740.07761043176,519511.7968596981,0,1987,1478,3
-1903.4657421922068,-641.3762188447502,57.55309581557613,264078.3326253451,194416.18846457184,508904.86297327105,0,1985,1476,3
-1912.9003564441232,-699.2322868532619,59.425661798403084,259694.7816543795,194787.712708404,497193.60151904094,0,1970,1487,3
-1916.3135559260381,-755.498953891711,61.82166878870412,255686.77547269888,194845.5657153269,484418.3572608667,0,1981,1481,3
-1913.9440822799374,-809.188918145706,64.87746143041835,252100.16464040818,194587.00306908487,470633.4277777623,0,1948,1507,3
-1906.1508321786544,-859.2839212240477,68.72004767244803,248968.26306887806,194015.34603282815,455906.537105854,0,1943,1512,3
-1893.409939417405,-904.758418478574,73.46218682094235,246310.87623415835,193139.4499151664,440318.0694724456,0,1943,1507,3
-1876.3053352418956,-944.5978351675718,79.19945256908441,244133.86529694215,191973.06626407604,423959.98852161184,0,1945,1508,3
-1855.5024981389492,-977.8181726073112,86.00576644665222,242428.90391139276,190534.09236120892,406933.5496484664,0,1945,1507,3
-1831.7064623010926,-1003.4871125949862,93.92680603856464,241173.28217744656,188843.8696154176,389346.94236399495,0,1944,1514,3
-1805.6091142477505,-1020.7550083041654,102.9716610786254,240330.06129267704,186926.7892621869,371314.34839237086,0,1953,1501,3
-1777.833276425932,-1028.916065882947,113.09800278202117,239848.78408036617,184810.37114080336,352956.25795138394,0,1953,1500,3
-1748.8977738395554,-1027.488472757823,124.19705812768609,239666.92425654677,182525.94196778772,334401.26147395116,0,1964,1487,3
-1719.2220294399135,-1016.2828911985116,136.09874858788982,239712.83452769197,180109.7609758091,315788.90258949646,0,1973,1483,3
-1689.160129828588,-995.4499079699435,148.59461971220838,239910.3862683858,177604.0397483225,297271.2711902642,0,1967,1488,3
-1659.0373457586334,-965.5019372227182,161.45547553109796,240183.8347566975,175056.9714469451,279011.5953333504,0,1961,1493,3
-1629.1652249119863,-927.2952576837407,174.4406680556416,240462.6249383216,172520.5192024074,261178.22258517012,0,1964,1495,3
-1599.8313568729047,-881.9686625301574,187.3071893383191,240687.23906556284,170045.8186516278,243933.80959006204,0,1973,1488,3
-1571.2781762589814,-830.8650253463878,199.81346252513995,240814.77280318085,167678.3843062995,227425.00076937134,0,1988,1477,3
-1543.6805844048756,-775.4601928082513,211.71155131305412,240821.90308268304,165454.8003404437,211777.03622452947,0,2002,1460,3
-1517.1209745534063,-717.2963804660507,222.73302130932768,240705.063544571,163400.4686891119,197091.762385677,11,2009,1458,3
-1491.5666995832084,-657.9285447591811,232.58012816260168,240478.733369088,161528.60035099144,183447.5306378688,404,2014,1455,3
-1466.863287483225,-598.8941567342383,240.93318113779884,240171.90535805747,159841.84576567254,170901.03330111766,1455,2009,1453,3
-1442.7513510114193,-541.6872785248426,247.47666195043251,239822.57567942332,158336.64023336364,159490.1402048115,2117,2009,1459,3
-1418.9041704911058,-487.71076501059224,251.9324238057341,239471.8741061975,157008.0754440263,149236.5670473856,2379,2012,1451,3
-1394.982868632574,-438.1672381416855,254.08963267424912,239160.27659525085,155853.30575701615,140147.376156223,2431,2012,1452,3
-1370.7073806074118,-393.8735244737411,253.83389012982116,238927.27428987055,154873.36901632004,132214.89014803275,2360,2013,1451,3
-1345.9260815750902,-355.1005844017897,251.18047957317617,238814.52897442083,154073.4534683519,125416.24530533199,2183,2013,1451,3
-1320.663052454103,-321.589088804646,246.31182372130738,238870.1287055898,153460.62258275118,119714.41257435294,2158,2016,1452,3
-1295.1310831955052,-292.75318091912357,239.5990114540728,239149.53075562752,153038.80153308122,115061.04615303635,2170,2013,1453,3
-1269.702883299171,-267.9251290249988,231.57616003671782,239710.72369005388,152803.19307718825,111400.07272980524,2083,2010,1455,3
-1244.8391718881746,-246.51263777960997,222.85724108043624,240604.97757874956,152736.3653157606,108671.3141822151,1974,2016,1452,3
-1220.989184897075,-228.0512596488172,214.02058028218835,241867.72901924475,152807.35634673847,106813.73273201336,1970,2024,1452,3
-1198.5038743026992,-212.17323330350624,205.51831689825795,243515.29520964672,152975.12498282344,105766.94926761303,1975,2013,1451,3
-1177.5931862044301,-198.53815470511736,197.64485998478347,245547.82051740563,153194.93783783016,105470.48967912052,1996,2020,1451,0
-1158.3262895529997,-186.78755065993133,190.54570641145716,247953.63631852763,153424.44650980478,105862.23550079431,2040,2042,1455,0
-1140.661697997464,-176.5429246500385,184.2403173724629,250711.9907912129,153628.10004597856,106877.74340765015,2099,2020,1453,0
-1124.490157733669,-167.4304302831098,178.64746646836264,253793.56873401804,153779.47562272032,108451.10387699856,2163,2028,1451,0
-1109.6758472741774,-159.11480703233622,173.6163323843329,257159.48405621774,153861.82367876047,110517.22530548516,2178,2026,1455,0
-1096.0891475010064,-151.331235271989,168.97124878896014,260760.58734010084,153868.19472030737,113014.68711419326,2160,2028,1454,0
-1083.625317946689,-143.90528573347837,164.55618931401978,264538.4275577312,153801.42008374093,115887.59994447345,2169,2037,1453,0
-1072.2109257516327,-136.75499364709168,160.256181603826,268428.8208921633,153672.34732347718,119085.48108468046,2108,2039,1455,0
-1061.8045820871057,-129.8775579880702,155.99431604826898,272368.1440124348,153495.35521946842,122561.66432031483,2054,2038,1455,0
-1052.3915866853001,-123.32778012093753,151.7183907362213,276299.7247774607,153283.15690421616,126271.4417818207,1983,2043,1454,0
-1043.9687548357385,-117.19098916466265,147.38741171897016,280177.7292117606,153043.64906423708,130170.78035875499,1872,2046,1455,0
-1036.5237959084936,-111.55104767218864,142.9615356421586,283968.47611133807,152779.53927549112,134215.863487511,1719,2060,1455,0
-1030.0227943259945,-106.4629813646423,138.39844999048972,287649.5242300752,152490.03833539836,138363.31390551888,1610,2086,1451,0
-1024.410937711695,-101.93949534441286,133.65721730830683,291207.1841219715,152173.0914718805,142570.68292912413,1431,2081,1453,0
-1019.6189756933203,-97.95087111164263,128.70678069727697,294633.5722977736,151826.8317238325,146797.0795987518,1271,2068,1451,0
-1015.5698378711736,-94.43580517013851,123.53533643234903,297923.6415221299,151450.21922994292,151004.12277915044,1121,2080,1451,0
-1012.1839524639511,-91.31826787079395,118.15547875179193,301072.7074567515,151043.19730515598,155156.84955624578,1048,2101,1454,0
-1009.3825051025946,-88.52287010909446,112.60068757504527,304075.1067141075,150606.45801760902,159224.21063739585,832,2088,1459,0
-1007.0892033499748,-85.98531195905818,106.91464282633805,306923.8991789632,150141.04737884912,163179.3480962814,663,2089,1455,0
-1005.2314873687088,-83.65724551627072,101.14103030732667,309611.163228717,149648.1565737684,166999.6367678454,606,2111,1458,0
-1003.7420463542423,-81.5064755441401,95.32004259984708,312128.70041433634,149129.2269316153,170666.3916911726,450,2126,1464,0
-1002.5608836984707,-79.51578816662081,89.49057534981108,314469.0910067739,148586.1999048693,174164.48639319133,299,2165,1480,0
-1001.6367536035297,-77.68248967329647,83.693812738075,316626.6539360536,148021.6961836186,177482.0090864071,256,2148,1497,0
-1000.9268706903116,-76.0175212458838,77.97564982023464,318598.05446061416,147439.02721495932,180609.95183769855,217,2153,1530,0
-1000.3956131408289,-74.54249024252975,72.38788910481227,320382.83762332215,146842.0678564299,183541.98937797287,170,2130,1532,0
-1000.0137146773246,-73.2850042483601,66.98876368111281,321983.8597834554,146235.09141272982,186274.25979700248,135,2130,1543,0
-999.7580735812339,-72.2725982861571,61.841798465801524,323407.3183717469,145622.5648511159,188805.04897998951,119,2100,1544,0
-999.6113282487553,-71.52512943762147,57.01195300091119,324662.37526403717,145008.83134489378,191134.45555332757,21,2091,1565,0
-999.5612176642151,-71.04831126829316,52.56039812247663,325760.52875730797,144397.7818096993,193264.07699846374,34,2111,1576,0
-999.6003196233702,-70.83149036797424,48.53897074821462,326714.7702061321,143792.6401378714,195196.70732082432,0,2127,1565,0
-999.7258212890279,-70.84935611115208,44.9837989423066,327538.55506327836,143195.82550924216,196936.08110588495,0,2132,1582,0
-999.9385606125753,-71.06565795317239,41.9101083314177,328244.8740697179,142608.88640356815,198486.6566173106,0,2160,1738,0
-1000.2413527139702,-71.43842656499731,39.311884219799076,328845.7047938638,142032.56925967903,199853.4449251357,4,2122,1597,0
-1000.6372839764532,-71.92642487713634,37.16672086292194,329351.79320404766,141467.0235441276,201041.93003266776,0,2165,1751,0
-1001.1287365164918,-72.49445437751908,35.44272602112677,329772.61842945655,140912.06387451317,202058.0236206422,0,2139,1681,0
-1001.7171692471013,-73.11558375745363,34.105101899003266,330116.5126809911,140367.36543797544,202907.9785238309,0,2109,1626,0
-1002.4030258407688,-73.77098996294609,33.121873101647274,330390.91439513734,139832.5177409087,203598.2807682274,0,2135,1761,0
-1003.1854346047796,-74.44855536455097,32.4678848807144,330602.6204011732,139306.9852562013,204135.53592332566,0,2149,1801,0
-1004.0617671429677,-75.14058668718418,32.12693082992429,330757.9136260596,138790.0807535265,204526.3320196013,0,2155,1807,0
-1005.0274308845804,-75.84116726030672,32.09319327989932,330862.5618017617,138281.00416314937,204777.0921696733,0,2204,1805,0
-1006.0765386598359,-76.54392098811944,32.37181228609987,330921.6999128724,137778.92343401135,204893.95715932,0,2257,1776,1
-1007.2033223603556,-77.24040374470515,32.9773259810988,330939.58982012694,137283.03402567643,204882.7266060687,0,2184,1836,1
-1008.4030333801388,-77.91943164194265,33.930128618448926,330919.3293083404,136792.55526332156,204748.85365462225,0,2266,1797,1
-1009.6718891925389,-78.56860646480388,35.25193423974656,330862.66730008915,136306.65273745186,204497.47045390066,0,2284,1823,1
-1011.0074058243525,-79.17837519079114,36.961139036943706,330770.01994971145,135824.3162288511,204133.42776910146,0,2233,1877,1
-1012.4099737941043,-79.74614914865936,39.06980522782844,330640.64650348335,135344.29666100035,203661.33213603802,0,2276,1849,1
-1013.8849281843878,-80.27763290903602,41.58368188981097,330472.91568555246,134865.16903920693,203085.54603290884,0,2283,1851,1
-1015.4442825251982,-80.78563106675453,44.50447031051322,330264.6201009546,134385.46796723563,202410.13462034066,0,2274,1878,1
-1017.1074557906715,-81.28890219822097,47.83113279669078,330013.2783132279,133903.7859477138,201638.80800236244,0,2282,1901,1
-1018.899851930581,-81.8118873915482,51.557620509935994,329716.4711700115,133418.7312584262,200774.87526620625,0,2212,1950,1
-1020.8488059834488,-82.38269882089602,55.66975182080698,329372.3445370345,132928.7635023257,199821.15796973748,0,2286,1904,1
-1022.9791943937429,-83.02835929151803,60.14641034099524,328980.1660090343,132432.1252274368,198779.8827391885,0,2234,1960,1
-1025.312640038631,-83.77009859410124,64.96590894799823,328540.6137811611,131927.03420372203,197652.59739270556,0,2254,1971,1
-1027.8710028648306,-84.6197857619018,70.11345387953261,328055.6438519122,131411.94206021918,196440.11200937434,0,2221,1998,1
-1030.6805633116287,-85.57690402056777,75.58429085372674,327528.09756113926,130885.55178025301,195142.50112588715,9,2172,2030,1
-1033.7738544538452,-86.62720413981583,81.38031374145022,326961.28012563754,130346.54233436268,193759.12515862894,0,2114,2071,1
-1037.1895654355408,-87.74371919838478,87.50266738763573,326358.58342687064,129793.16731068035,192288.56773587782,0,2053,1924,1
-1040.9720889474195,-88.88895222870336,93.9446958674663,325723.2074187907,129222.97833324822,190728.54089300052,5,2067,1947,1
-1045.171240004548,-90.01705080620049,100.6873385064894,325058.02323579555,128632.80185616072,189075.84771124626,0,1969,1997,1
-1049.8419892844722,-91.07589605784688,107.69642670074423,324365.53117036464,128018.88600189135,187326.3930411048,0,1903,2074,1
-1055.0440263480348,-92.0096913451465,114.92197962084852,323647.9037796891,127377.14876120386,185475.20292541868,0,1888,2139,1
-1060.8411544024411,-92.76200795856748,122.29992120318175,322907.12177419825,126703.51660436389,183516.42735807243,6,1794,2216,1
-1067.3005440481477,-93.27829539507016,129.75494376135825,322145.1663700493,125994.2624775265,181443.386722706,0,1730,2236,1
-1074.4918458103516,-93.50765383868797,137.20384887976587,321364.24778045085,125246.24045585167,179248.71096588147,2,1697,2290,1
-1082.4862676487555,-93.40448277115664,144.5598097583679,320567.0555945868,124457.0122038443,176924.52301239717,0,1624,2335,1
-1091.3554152020386,-92.92978885317,151.73624702235364,319756.9820280257,123624.91089821825,174462.66982921638,0,1592,2367,1
-1101.1693843054788,-92.05173430749538,158.64906437834395,318938.26188696455,122749.04830964262,171855.00724512883,0,1532,2414,1
-1111.9941977472852,-90.74563490825452,165.21811921533268,318116.02451527043,121829.25954935573,169093.6877768543,0,1481,2473,1
-1123.8894952531518,-88.99370891859164,171.36833424022439,317296.30133810337,120866.04282755754,166171.4761345888,0,1440,2499,1
-1136.9077078310538,-86.78447519187256,177.03013251074748,316485.96728604723,119860.50879066104,163082.09872631633,0,1342,2559,1
-1151.095172348375,-84.11148301251237,182.13950642298073,315692.5599793844,118814.29108798635,159820.55863045424,0,1306,2564,1
-1166.4936756045408,-80.9716038572069,186.63766861244275,314924.04996103706,117729.45915932825,156383.43120283206,0,1240,2603,1
-1183.1405971245003,-77.36327487534177,190.46987012020116,314188.6285969544,116608.46331894558,152769.1132565595,2,1246,2623,1
-1201.067387346839,-73.28485559541421,193.58381355157516,313494.48550591693,115454.06859121256,148977.93863348317,11,1121,2666,1
-1220.2964670745664,-68.73368741305161,195.9289717006047,312849.63654806936,114269.33469398193,145012.2689494396,0,1098,2694,1
-1240.8365150092495,-63.70617760992027,197.4585097254579,312261.8331543557,113057.7332027863,140876.58781332852,8,1031,2729,1
-1262.67704941271,-58.19841313084224,198.13416956368968,311738.4411783636,111823.37987506879,136577.4490158818,13,1034,2763,1
-1285.783694905401,-52.20695675099431,197.93198411497417,311286.2415170662,110571.29958243655,132123.40538198908,14,917,2802,1
-1310.094645874087,-45.72983977347192,196.84714196393946,310911.1034188548,109307.5957608425,127525.01386858812,9,830,2833,1
-1335.5177050237567,-38.76777866191313,194.89790015674558,310617.45197684655,108039.4230261212,122794.75531055332,0,777,2839,1
-1361.9275223954926,-31.325789935545775,192.1275282018783,310407.66889369796,106774.80846614456,117946.98815949146,0,746,2856,1
-1389.1634163538101,-23.415390423593742,188.60334205956002,310281.59262846404,105522.39175888916,112998.13690136823,0,686,2872,1
-1417.0274153924695,-15.057073659071007,184.4135954231725,310236.0874945306,104291.09579885691,107967.01716746553,0,647,2870,1
-1445.2822073142406,-6.282684833151495,179.66187952211868,310264.62233600614,103089.6691201461,102875.08968091264,2,570,2878,1
-1473.64969439113,2.8620291988848385,174.4578886019956,310356.86749162094,101926.04179931959,97746.52864251449,4,572,2866,1
-1501.8098172575403,12.314313720321048,168.90667186323714,310498.4227507967,100806.6811526316,92608.27733452423,8,465,2894,1
-1529.3994394826898,21.990472760816477,163.0980363232253,310670.84836256184,99736.12318163844,87490.17503879049,14,439,2887,1
-1556.0122986146348,31.781015273509343,157.09532954205358,310852.0352051629,98716.63366468083,82424.96414956302,18,483,2869,1
-1581.199418727776,41.545836445541646,150.9264758514232,311016.77582571015,97748.13686641224,77448.26241740021,3,525,2873,1
-1604.4703391979683,51.11127879487717,144.58254149383546,311137.54734327656,96828.81812313743,72598.51813399883,16,604,2827,1
-1625.2979332199263,60.27052244089683,138.0256167536655,311185.6167290421,95956.55093063715,67916.68553691747,21,653,2757,1
-1643.1275230388235,68.78774332555423,131.20340560995874,311132.1692357242,95130.69542001637,63445.80577479411,8,817,2680,1
-1657.3924387115594,76.40794408634427,124.06820006405042,310949.10077543114,94353.79894878839,59230.710055424795,8,1039,2554,1
-1667.5373825688698,82.87363158140568,116.5986284383046,310609.52764415095,93633.03384295726,55317.66824607104,10,1139,2491,1
-1673.0418196999397,87.94183408315028,108.81592552072341,310088.1971283684,92980.92391640814,51754.10878763137,1,1255,2315,1
-1673.4408468090226,91.3960092582409,100.78441910617241,309362.2849672325,92414.72183782063,48588.60975510176,11,1388,2165,1
-1668.3511858029697,93.05749896224492,92.59750013499806,308413.1582818305,91954.51740968552,45871.033539017575,9,1447,2058,1
-1657.499105611098,92.80205144456109,84.36056391428029,307228.90065852564,91621.10222075452,43652.7148322216,11,1526,1959,1
-1640.738476736187,90.58640079386306,76.17806649416269,305807.34307053435,91434.24608665469,41986.293883882645,10,1638,1843,1
-1618.0551730568832,86.48587789607389,68.1443403254716,304159.60052281624,91411.11276675707,40924.55123464599,11,1771,1764,1
-1589.5574768640408,80.72647117735642,60.33913847427256,302313.0122024198,91564.86363860444,40518.415734240996,12,1806,1683,1
-1555.4472701052318,73.68641703129612,52.82922640298895,300311.905003307,91903.84268533938,40814.73850695521,14,1798,1691,1
-1515.9763694030198,65.85886407744957,45.67299190358985,298216.0062888069,92431.29481492462,41854.2713278122,9,1859,1629,1
-1471.4131345598112,57.79229523522252,38.924898965825484,296097.57170764013,93145.33880927654,43670.57826614755,6,1876,1583,1
-1422.039220611962,50.023307708274196,32.639116615208344,294037.24695765827,94038.95081515491,46290.27635007914,2,1909,1556,1
-1368.1707802108053,43.00324708053596,26.870489981993483,292117.9341261327,95099.8835979903,49733.937851356655,3,1936,1523,1
-1310.1863422228403,37.03751820197912,21.670325066347434,290418.1043840186,96310.74423135174,54016.56531323427,0,1959,1493,2
-1248.5458334172454,32.26330694730866,17.07678848007508,289006.1061560288,97649.90405365167,59147.103960522385,0,1990,1477,2
-1183.7937790087433,28.6663459603059,13.102710166372688,287935.1765868394,99093.79249250436,65127.24064252009,0,2009,1455,2
-1116.550599412336,26.11858007477201,9.727797217127796,287240.00340790563,100619.90555774057,71950.04183936889,0,2011,1453,2
-1047.4959438826372,24.423409988614004,6.902499447431019,286936.3719439307,102209.60244976918,79599.05463614741,0,2013,1455,2
-977.3444386503979,23.366127045847403,4.5626872549068755,287023.4662899644,103850.41814043753,88048.25504495337,0,2010,1451,2
-906.8226493454841,22.761074848323585,2.6455252774316067,287487.11899984436,105537.13945846535,97262.606606653,0,2008,1456,2
-836.6509225060205,22.48719813497512,1.0997129331768336,288303.2858995296,107270.62462559211,107199.36460420939,0,2007,1454,2
-767.520005664283,22.51334023944446,-0.10681669658620545,289441.96631310805,109054.65445844641,117810.48163250765,0,2010,1451,2
-700.0668593138583,22.906391069828903,-0.9807923612031425,290870.6402777334,110892.5820554705,129045.05018320205,0,2011,1455,2
-634.8649912059126,23.808221272613142,-1.5065182932636054,292556.07430436654,112785.29278337125,140851.00346329974,0,2010,1451,2
-572.4289232137467,25.385165965285722,-1.6589689690798752,294464.8733540743,114730.51999546298,153176.64391880028,0,2010,1451,2
-513.223630959788,27.777383481866245,-1.4170799492538906,296563.5139746906,116722.98830024227,165971.60019596058,0,2006,1454,2
-457.6722583922444,31.069210990624047,-0.7706253693707796,298818.2930325345,118755.24169908128,179186.67715874783,0,2007,1457,2
-406.15910182629244,35.27937898447624,0.2770650635338187,301195.54034922837,120819.03793773921,192773.28429125922,0,2007,1452,2
-359.0303562583948,40.363999089271466,1.7077363190385586,303662.0907528057,122906.66463176382,206682.70238366807,0,2010,1451,2
-316.59355899933684,46.22754156238594,3.488681729001229,306186.1177952198,125011.71395360793,220865.37444326567,4,2010,1454,2
-279.11387600938065,52.73760706866027,5.576094798736539,308738.54370885773,127129.50788598691,235270.9015947956,1,2011,1451,2
-246.8105926292698,59.73922765153128,7.920194637691947,311294.49017294147,129257.25831669915,249848.40832088699,1,2010,1451,2
-219.8575676888791,67.06765273682846,10.470473808533939,313834.13028938626,131393.8929437759,264546.90427708044,0,2010,1451,2
-198.38551554270148,74.56111121840125,13.180891272223455,316343.01704854565,133539.69075809486,279316.0497129465,0,2009,1455,2
-182.48366881868668,82.07043751315014,16.01416389904031,318811.98717211717,135695.882451621,294106.7892546382,0,2006,1458,2
-172.20049918116933,89.46263659405872,18.943987858185462,321236.5907452924,137864.29186835498,308871.19214142126,0,2010,1452,2
-167.5436777279697,96.62061510112912,21.956174912949827,323616.23583098897,140047.07004178595,323561.93208052777,0,2008,1456,2
-168.48060338161704,103.44094111770325,25.050877889946374,325953.1978447579,142246.5870414558,338132.1398274977,0,2008,1457,2
-174.9404748538918,109.83024697810232,28.246724753484823,328251.48571678705,144465.4790776513,352535.96476163773,0,2006,1458,2
-186.8173105126589,115.70205139386773,31.584558179811633,330515.66733030486,146706.6210256536,366729.1464667558,0,2006,1456,2
-203.97410502904287,120.97537336375932,35.127041160923355,332749.68559302844,148972.7911886575,380669.23331879446,0,2006,1455,2
-226.2484797453992,125.57450055834795,38.95326313928962,334955.5872188604,151266.07853797596,394316.1182047761,0,2006,1457,2
-253.45752610066594,129.4283096767062,43.151118404424544,337132.3687667666,153587.2572353281,407632.57970060734,0,2006,1455,2
-285.4007919975907,132.46777616502942,47.809515671047826,339275.22755784227,155935.3698194852,420584.39050369966,0,2006,1455,2
-321.86331081683136,134.62131395166188,53.01057488236292,341375.2168152233,158307.6447774863,433140.5024256368,0,2006,1454,2
-362.6180463208635,135.80975439181984,58.82325225477835,343419.16153554677,160699.62644737397,445273.03525939694,0,2010,1451,2
-407.42678179022533,135.94372470677266,65.29931377366003,345389.8110190558,163105.39035753443,456956.6640957654,0,2005,1458,2
-456.04094776491684,134.92428656111935,72.46992921609997,347266.2224434108,165517.82123830664,468167.8963521205,0,2006,1455,2
-508.20140849942635,132.64544817809062,80.34208612173532,349024.15187098883,167928.78276997062,478884.3217828765,0,2006,1453,2
-563.6362429562962,128.9963218359796,88.89629003124323,350636.3758053597,170329.15086641037,489083.7908766211,0,2009,1451,2
-622.0586912887029,123.86126240768236,98.08655379578212,352073.12933243025,172708.96291240846,498743.904400432,0,2008,1455,2
-683.165405601252,117.11798390568721,107.84174301742718,353302.59333463555,175057.71062349985,507841.6516418554,0,2009,1454,2
-746.6354548338398,108.63438853646919,118.0670021381472,354291.3656263499,177364.7355102351,516353.01035736105,0,2007,1453,2
-812.1323979319657,98.26460335571059,128.6449415768825,355005.1094627042,179619.79570403142,524252.8188990376,0,2008,1452,2
-879.3067895730264,85.84619441437668,139.43703450170398,355409.34693393606,181813.56248898734,531514.7175986579,0,2010,1455,2
-947.7961245346879,71.20112015500807,150.2872295646951,355470.37737894524,183937.81533819507,538110.8447662038,0,2007,1455,2
-1017.2232996155061,54.14005712769401,161.02845147918234,355156.47287594824,185985.46862820408,544011.4954122093,0,2004,1458,2
-1087.1928542901323,34.46794016788652,171.48962582754945,354439.20184409834,187950.47043896955,549184.799075117,0,2005,1455,2
-1157.286530501211,11.990609734227117,181.50426718818375,353294.87407654256,189827.44727899678,553596.5604385101,0,2006,1454,2
-1227.0629892911934,-13.476267982817507,190.92264763819975,351706.24808496004,191611.10756980348,557210.5952299626,0,2009,1452,2
-1296.0599398231072,-42.09677079118639,199.62237229778418,349663.9934860334,193295.5550566481,559989.2634176223,0,2010,1453,2
-1363.7958834216217,-74.00441512224847,207.51185047862415,347167.33683098835,194873.6585788294,561893.8437833308,0,2010,1452,2
-1429.7736465137393,-109.29299911237409,214.52824121778278,344224.0781558948,196336.56808755573,562884.9703925082,0,2010,1453,2
-1493.4845602002747,-148.00934299096645,220.6338690882031,340850.5127873877,197673.43872053287,562923.2179526549,0,2008,1455,3
-1554.4130578195825,-190.14678292093782,225.81331966084744,337071.4577128138,198871.40606484917,561969.8125813034,0,2008,1454,3
-1612.0450521009968,-235.63670470836797,230.07178526961403,332920.26236390264,199915.7615047129,559987.6061427959,0,2000,1460,3
-1665.8768545985888,-284.3376913192184,233.43414245002424,328438.78915265965,200790.15050453672,556942.1529508905,0,2005,1462,3
-1715.4227786212844,-336.0249239893908,235.9431937145464,323677.13355761586,201476.75176088806,552802.6850913649,0,1998,1463,3
-1760.225776534434,-390.38150161518644,237.65562268704613,318692.689655179,201956.57444718006,547543.1220367452,0,1996,1467,3
-1799.868871534838,-446.99085732974635,238.63636339261774,313548.85647460044,202209.90917175388,541143.2307049005,0,1988,1471,3
-1833.9856465022328,-505.33193405578606,238.95316607356764,308313.5911554113,202217.08498766483,533589.9711570364,0,1987,1472,3
-1862.2748983879742,-564.7808769219581,238.67267155566486,303057.53891314595,201959.72755243562,524879.0991287034,0,1968,1485,3
-1884.517406463488,-624.6177742598989,237.85901090156696,297852.2232805449,201422.18210214734,515016.9078501746,0,1952,1498,3
-1900.5896292958191,-684.0366389180869,236.57517058732518,292768.5525528987,200592.73814200156,504021.6827677094,0,1951,1506,3
-1910.474804336253,-742.1593586846942,234.88672108491394,287875.0678453441,199464.7218756224,491924.6076120001,0,1947,1506,3
-1914.27041779238,-798.0482579773244,232.8660207263256,283236.1880793493,198037.31139616042,478770.4205155474,0,1939,1518,3
-1912.1914049797354,-850.7154494369009,230.59354689569065,278910.70772299706,196315.6437028262,464617.7361036774,0,1940,1511,3
-1904.5720051530432,-899.1353468558322,228.15564276394696,274949.9945778132,194310.13192392347,449538.5541920167,0,1937,1518,3
-1891.8660505436978,-942.2601213077036,225.64075100094232,271396.1411384581,192035.5123143139,433617.40786637884,0,1938,1513,3
-1874.6374115136516,-979.0406345189676,223.13495977888846,268280.4897940976,189510.1720789378,416950.09835699236,0,1936,1515,3
-1853.5320809754296,-1008.4612379869861,220.7176324554977,265622.1912605442,186755.8697347072,399641.2352265373,0,1938,1515,3
-1829.2350601967414,-1029.5796089703597,218.45998125216786,263426.898403012,183797.83163856217,381801.88696585724,0,1938,1520,3
-1802.416209586488,-1041.5653035924968,216.42517579271333,261685.77098535284,180665.17758610414,363548.9787928426,0,1965,1490,3
-1773.672313370642,-1043.7522721910896,214.6615773486782,260374.51285496456,177391.56393678027,345006.1236363175,0,1956,1502,3
-1743.491995644936,-1035.7033270253223,213.19165636245978,259452.93831754613,174015.911475346,326305.640908167,0,1949,1510,3
-1712.263685778369,-1017.2675675334054,212.0117252058568,258866.25487077917,170582.59735282024,307590.968148282,0,1957,1496,3
-1680.3149475662321,-988.6253350334503,211.09866598553054,258548.06701878973,167140.3181151307,289017.2579307719,0,1965,1493,3
-1647.9524677759646,-950.3156371703558,210.40749489406588,258423.89106380864,163739.74869777376,270749.2167594752,0,1957,1494,3
-1615.477581846936,-903.2337377004485,209.86114721969304,258415.43487664388,160430.36257531817,252955.47660687967,0,1960,1497,3
-1583.1766267952771,-848.5960386167942,209.33925437228564,258446.5908006494,157256.76850932254,235799.19501174852,0,1973,1481,3
-1551.3024841297758,-787.8874353275473,208.66850101215695,258449.53027313197,154256.0040655029,219428.94872160224,0,1993,1468,3
-1520.0550314919406,-722.8016935921892,207.6222199051374,258368.9429685786,151456.83694236638,203973.35840284053,38,1963,1490,3
-1489.5581750920833,-655.1734119992985,205.9337330568916,258164.51349722847,148880.48688701008,189538.10306669527,293,1981,1478,3
-1459.8404241888431,-586.915846880219,203.3186935664197,257811.76132837863,146542.0467110971,176204.6813215164,999,1978,1479,3
-1430.8340439574217,-519.9604514954697,199.50545209942504,257300.94113359496,144452.63306566785,164031.27062982097,2023,1982,1475,3
-1402.3998358811957,-456.16318670648997,194.27405451858104,256634.56953469984,142622.20073815263,153054.39862029097,2438,2005,1457,3
-1374.3698062269634,-397.1729824276169,187.48665495746434,255825.27558534712,141061.74103434358,143290.35651891437,2470,2013,1452,3
-1346.5951101610722,-344.2668394098462,179.09411319129475,254896.53322032958,139782.92208602518,134735.90677419232,2502,2011,1453,3
-1318.989355530415,-298.16784956079465,169.13792230641738,253888.00962079712,138794.79341303968,127368.0486785315,2488,2013,1453,3
-1291.5616976269098,-258.947062596341,157.77690245451186,252863.0789970075,138099.88570628964,121144.08015371289,2386,2011,1451,3
-1264.4436891739106,-226.12211109406087,145.33771182813751,251911.486388057,137692.35515999008,116004.20829510964,2329,2009,1455,3
-1237.8944584332776,-198.92153621449523,132.33525121447445,251139.9191550434,137557.92957773132,111877.48036821316,2110,2010,1453,3
-1212.254386386791,-176.54385190484263,119.40260658907135,250651.28955127666,137673.4494619278,108689.09939160419,2078,2010,1453,3
-1187.869549214844,-158.2863532205271,107.16593030024038,250525.03525291974,138005.53603734015,106366.1748212748,2030,2010,1452,3
-1165.034373076013,-143.5605742616815,96.14956352598966,250809.5836358259,138510.76828196613,104840.49790522276,1933,2029,1454,3
-1143.9586984952605,-131.8584157889078,86.73199971221365,251525.81961163305,139139.27070515533,104048.72932720461,1989,2032,1451,3
-1124.7506135104406,-122.71141648509062,79.13425406890487,252674.0407229967,139840.18486839646,103931.0047575004,1950,2026,1452,0
-1107.4168465396162,-115.66502216832363,73.42776095976767,254239.53254452167,140566.46051301615,104428.97120787535,2044,2036,1453,0
-1091.8771748932659,-110.27246760312102,69.5481360304056,256195.968799155,141278.09134106812,105484.20221204993,2098,2054,1451,0
-1077.985335625456,-106.10696325465699,67.30770437473282,258506.98356891802,141943.65967347988,107037.90834963929,2167,2038,1451,0
-1065.5566678661146,-102.78996535994766,66.41876212141756,261126.70401831166,142540.8039809338,109032.5099639757,2237,2053,1454,0
-1054.4029166246605,-100.0256574932275,66.54303141329324,264001.10123136267,143056.94129110847,111414.47515785969,2234,2054,1452,0
-1044.3622387968433,-97.62323304073375,67.35396433892055,267071.05724360177,143490.24733725018,114136.5077019041,2223,2053,1450,0
-1035.3153584523386,-95.49458929608188,68.58293775687113,270276.04155985324,143849.28262712268,117157.67070619263,2237,2061,1452,0
-1027.1911440859317,-93.62968321171957,70.03403529617151,273557.85911190964,144149.46442084198,120441.67706458186,2200,2069,1452,0
-1019.9612445495591,-92.06159218673652,71.56704409210117,276864.9399883637,144406.70014824186,123954.34757483596,2171,2078,1454,0
-1013.6225946115064,-90.83653401283443,73.06772012641942,280155.99724875425,144631.6408860806,127661.44127676585,2098,2075,1450,0
-1008.1743712939619,-89.99475932723213,74.42822103918364,283401.312942322,144827.5632735862,131527.6928083881,2010,2077,1453,0
-1003.5975302546105,-89.55726167594717,75.54057110372644,286581.7486576475,144991.52402338738,135516.935819166,1915,2090,1459,0
-999.8443679648453,-89.51580793604141,76.29832254447666,289686.52540005534,145116.83066721295,139592.66516384998,1791,2080,1458,0
-996.8409530068226,-89.8280795770372,76.60714567916834,292710.3738497675,145195.67603436077,143718.78528598102,1638,2086,1455,0
-994.4974965028441,-90.41838221639428,76.4032316246451,295650.38233920175,145221.60564737814,147860.62563873557,1522,2112,1455,0
-992.7194873779805,-91.18401278189938,75.6689096062816,298503.33727163234,145191.09997826905,151985.79827318256,1312,2100,1458,0
-991.4158620288739,-92.00859838874634,74.43237123133439,301264.2182264208,145103.56880279942,156064.5745546473,1211,2125,1455,0
-990.5042411552337,-92.7804193941582,72.75074245999764,303925.6789955874,144960.15808768565,160070.10324406798,938,2126,1455,0
-989.9133597978775,-93.40745280426755,70.68968562029383,306478.13874752633,144762.50962726524,163978.5374825319,804,2114,1455,0
-989.5828686171441,-93.82413808382685,68.3114495729213,308910.45228337013,144512.29140658345,167768.93775036777,682,2149,1464,0
-989.4620076972358,-93.99300361540776,65.6720513850167,311211.1330253256,144211.4468614891,171423.08732968714,600,2143,1461,0
-989.5083574222821,-93.90444758554786,62.82318541962968,313369.5879876608,143862.61771836123,174925.2624608251,546,2157,1462,0
-989.6865703315217,-93.57441360001239,59.81571499019746,315377.0165634216,143469.30114027736,178262.0014019172,425,2184,1633,0
-989.9666647793834,-93.03911992870425,56.70300816089085,317227.2153889335,143035.67150465908,181422.03556275606,420,2199,1631,0
-990.3224504246366,-92.34809794357824,53.5428346394089,318917.207453983,142566.28046794032,184396.280191533,287,2182,1635,0
-990.7309489317314,-91.55675098905647,50.39659387592213,320447.39382952295,142065.773590303,187177.75070545706,202,2198,1639,0
-991.1727352319976,-90.7182632237666,47.32612982432088,321821.3057188688,141538.61527974953,189761.49260730704,207,2216,1646,0
-991.6325482483284,-89.87680199070822,44.39031508598507,323045.1207550814,140988.90263244716,192144.49227335738,167,2201,1669,0
-992.0997467825136,-89.06453326720923,41.64275706806463,324126.9304164719,140420.3687093728,194325.4928399005,137,2215,1670,0
-992.5685066862338,-88.3019055584537,39.13014523315159,325075.78027481074,139836.51838528377,196304.7959904683,88,2227,1688,0
-993.0375072136533,-87.59953527885688,36.891027324008846,325900.7548563635,139240.77716960557,198084.0698412372,73,2233,1693,0
-993.5087999269298,-86.96143467906658,34.955419702482544,326610.36416142166,138636.57656707495,199666.15511588933,57,2262,1687,0
-993.9864496035106,-86.38980728436881,33.34544439821361,327212.22314796445,138027.36609167611,201054.9355543123,41,2265,1709,0
-994.4760178419277,-85.88977621083183,32.07681233350058,327712.94881389977,137416.6020026783,202255.25137074466,8,2223,1727,0
-994.9849153254983,-85.47163465195271,31.160558782135524,328118.27234745445,136807.71857153147,203272.78656938308,0,2190,1747,0
-995.5228450467329,-85.15029590024021,30.604438466267805,328433.3424255512,136204.03970842442,204113.92861080958,0,2191,1764,0
-996.1017725875649,-84.9433196582488,30.41376358002753,328663.0794524374,135608.65860360657,204785.59755334235,0,2225,1762,0
-996.7352339568663,-84.8683416737588,30.592084610584763,328812.4594326446,135024.31771106072,205295.02787038748,0,2262,1770,0
-997.4372730187897,-84.93980950145351,31.142234853783783,328886.7132743001,134453.28371246657,205649.52610429178,0,2267,1771,0
-998.2215412216482,-85.16577065656512,32.06740306741625,328891.3851189305,133897.27801420592,205856.2567172555,0,2251,1779,0
-999.100650427259,-85.54630350835134,33.37147045956491,328832.1583936507,133357.50048014917,205922.0852944608,0,2247,1774,1
-1000.085628724741,-86.07421856466661,35.05843725692867,328714.4857006839,132834.67996222692,205853.47968341288,0,2271,1779,1
-1001.1859183692333,-86.73709293896036,37.13152712802461,328543.21767904755,132329.10523344614,205656.46523992045,0,2274,1779,1
-1002.4107970508012,-87.51905961065643,39.592624682082935,328322.3683633384,131840.63011282258,205336.59273167103,0,2269,1775,1
-1003.7719927333001,-88.40157748006015,42.441884764784696,328054.9717268988,131368.64147442448,204898.86748985952,0,2250,1807,1
-1005.2855754001903,-89.36346666903917,45.67701785585478,327742.9875861524,130912.01590581465,204347.6601811793,0,2244,1796,1
-1006.9717173174315,-90.38085562952502,49.29233193617063,327387.2747678406,130469.09840612125,203686.64451149237,0,2263,1809,1
-1008.853242126362,-91.42762025963695,53.27798658841724,326987.63019851444,130037.71040841482,202918.7764074765,0,2285,1819,1
-1010.9547926724937,-92.47682881417397,57.62021032381201,326542.9115333557,129615.21677162313,202046.31087941604,0,2321,1806,1
-1013.3030277794212,-93.50307756401767,62.30293839042741,326051.24990112096,129198.67000667284,201070.83295742943,0,2286,1826,1
-1015.9272670108752,-94.48443753431005,67.30997688290442,325510.2913382162,128784.98800039238,199993.29538723498,0,2319,1821,1
-1018.8608186144803,-95.40377658145879,72.6249251746489,324917.4506324501,128371.0613475812,198814.05690500935,0,2255,1838,1
-1022.1431582607722,-96.25133559806937,78.22528571839986,324270.23640909296,127953.66841860836,197532.90240857474,0,2260,1880,1
-1025.8210234264936,-97.02749124896921,84.07359009669162,323566.6829192416,127529.23237305862,196149.07514784916,0,2269,1899,1
-1029.9464067419726,-97.74074031391969,90.11582860127852,322805.91667622613,127093.68348257348,194661.30289083294,0,2307,1921,1
-1034.573299352582,-98.40097270912258,96.28993594878611,321988.765057313,126642.67890527837,193067.74747210677,0,2266,1945,1
-1039.7563195412192,-99.01361462647397,102.536003453269,321118.1197529441,126172.07928362701,191365.95700069878,0,2243,1967,1
-1045.550920671467,-99.57652792035836,108.80264731773418,320198.8493510432,125678.2632031467,189552.9242357903,0,2205,1985,1
-1052.0136004062756,-100.07844665996996,115.04925067250466,319237.35812070017,125158.05733125642,187625.19751062404,0,2147,2053,1
-1059.2017646171967,-100.49892469782648,121.24442481117836,318241.12036008167,124608.47373599128,185578.99559808764,0,2093,1955,1
-1067.173367770871,-100.80928795269816,127.36273337117629,317218.34646243637,124026.5093188808,183410.2881003042,0,2121,2112,1
-1075.9866923817685,-100.97345775697839,133.38170802787386,316177.6413654262,123409.098241042,181114.78993937362,0,2154,2124,1
-1085.7000677177036,-100.94869148439838,139.27930873155984,315127.65691484546,122753.20484443079,178687.96925058114,0,2107,2135,1
-1096.3706852865382,-100.68757345761338,145.031686310695,314076.8577201954,122055.9808312589,176125.14200743547,0,2114,2174,1
-1108.052471962144,-100.14181396050823,150.61103820391074,313033.38884764264,121314.90581920338,173421.58239532565,0,2092,2220,1
-1120.7939056817252,-99.26629978095006,155.98376346958196,312005.0779570018,120527.90346017883,170572.6749596906,0,1886,2134,1
-1134.6365388655886,-98.02218794193973,161.10975324354106,310999.63641878456,119693.45776077319,167574.12263091473,0,1910,2180,1
-1149.6143130452922,-96.37902517822631,165.94295779200763,310024.9724354814,118810.73753357354,164422.1094465633,0,1860,2225,1
-1165.7538031343352,-94.31488381041501,170.43286384353667,309089.4556538723,117879.71151233203,161113.44887507873,0,1801,2262,1
-1183.075424207162,-91.81363695780473,174.52638318499703,308202.04910660477,116901.21258159827,157645.80009835874,8,1777,2282,1
-1201.5938813799821,-88.86085069071831,178.16895827473724,307372.33292880224,115876.92743835703,154017.9191897848,3,1697,2345,1
-1221.315984138803,-85.4402247996964,181.30425353156514,306610.4376067496,114809.27917784701,150229.84445358772,0,1607,2404,1
-1242.2364647933173,-81.53130857312009,183.8733275859709,305926.8697065033,113701.19893396727,146282.9636802206,0,1582,2434,1
-1264.3336475046792,-77.10897726514366,185.81439641458292,305332.29584535025,112555.9423506212,142180.11134000652,0,1495,2507,1
-1287.5661207942405,-72.14467369051158,187.06408357559906,304837.3070438007,111377.0922757767,137925.7509248655,7,1448,2548,1
-1311.8704319199228,-66.6085366277151,187.5606258163207,304452.0951586264,110168.69802294327,133526.088606248,7,1352,2589,1
-1337.1588483458788,-60.47161867648571,187.24811016781234,304186.0930472352,108935.46255632091,128989.18611911382,0,1308,2622,1
-1363.3169591637582,-53.708280052606945,186.0809654469045,304047.5819147701,107682.90361710973,124325.13102404447,0,1239,2648,1
-1390.2016710099115,-46.299246209919424,184.02874643572198,304043.15257617325,106417.4219138231,119546.1096248255,14,1106,2671,1
-1417.639248353054,-38.23509348115976,181.07988124937035,304177.11240118806,105146.28711556965,114666.48254545627,14,1012,2725,1
-1445.4235093369027,-29.519764871421486,177.24223264316944,304450.9577097231,103877.48805460495,109702.96414058596,1,944,2741,1
-1473.3148571791876,-20.174117646231668,172.5399937322258,304862.86038812087,102619.35401396333,104674.7522235127,0,890,2768,1
-1501.038959755356,-10.239180192536034,167.00855003228446,305407.2439254806,101380.09302542852,99603.68182980287,0,875,2765,1
-1528.284031064199,0.22108747453838928,160.68829385631423,306074.63346385234,100167.40334735058,94514.45957293166,1,771,2783,1
-1554.697683969989,11.117217345814614,153.6172235011989,306851.7913811257,98988.13881475381,89434.78808634069,1,642,2801,1
-1579.8839969996159,22.331855169132332,145.82497006692708,307721.99421798385,97848.1712197782,84395.45652127393,5,594,2819,1
-1603.4020490791877,33.71846991579868,137.33259530814615,308665.39000402344,96752.74301911464,79430.43710234447,13,535,2829,1
-1624.7682830276779,45.10203303017694,128.15894404837005,309659.42710341356,95707.35874012152,74576.76539784402,18,520,2804,1
-1643.4630865213746,56.28141764130498,118.33076138955936,310679.1577882585,94718.89803210221,69874.3441547776,15,618,2783,1
-1658.9434069863105,67.034572411446,107.89453471486729,311697.22220035613,93796.62436690241,65365.844319589814,15,694,2717,1
-1670.6627687815665,77.12831984509,96.92848716378325,312683.5691063021,92952.94889970805,61096.56608211906,18,760,2713,1
-1678.0914437901047,86.3287424203384,85.55040060051537,313605.1693188709,92203.75366842993,57114.38975188059,16,946,2585,1
-1680.73369072652,94.40632831559924,73.91628376362988,314426.2418190493,91568.01536476276,53469.96068346052,16,1053,2460,1
-1678.1502339864176,101.1377201944362,62.20915097966152,315109.39299075503,91066.78394799112,50216.93328376381,5,1145,2355,1
-1669.985978717742,106.31109084855117,50.62370273708538,315617.5082846077,90722.0432637854,47412.189221393164,0,1318,2198,1
-1655.9942175653755,109.74517995322614,39.351288396239745,315916.68523944396,90555.72527542972,45115.75360001476,0,1371,2099,1
-1636.0528240723215,111.32643971823146,28.563437518391297,315980.639529272,90588.58724256996,43389.94007631475,13,1581,1886,1
-1610.1691102270458,111.0490091159994,18.396999689019065,315795.3885181929,90838.95192875815,42297.80866647968,13,1587,1901,1
-1578.4681259420602,109.03821873466416,8.948729466417195,315362.9985305622,91321.55578622468,41900.97035652248,8,1679,1815,1
-1541.1647482225944,105.55494751754584,0.28073355994744564,314704.45745508606,92046.54770381543,42256.624731773634,2,1789,1716,1
-1498.53252199013,100.98403043607706,-7.5691716805295925,313861.1021388239,93018.79108455109,43414.82445023507,2,1878,1619,1
-1450.882383056023,95.79932617232102,-14.577441343012215,312893.25962091266,94237.55575138002,45417.0892081654,0,1844,1628,1
-1398.5540584436299,90.50156410474777,-20.723979457819052,311876.0124500489,95696.37423292208,48296.16394583836,0,1916,1573,2
-1341.9215376027746,85.55033572827567,-25.981295598693112,310893.645729698,97382.89129605166,52076.12527461424,4,1925,1547,2
-1281.410747252454,81.31092114193402,-30.311999773053007,310032.94524279813,99278.92457395454,56772.3158010026,0,1996,1464,2
-1217.5188655305028,78.01637996326265,-33.67816263967633,309374.5025420437,101361.105128094,62390.977016225064,5,2024,1458,2
-1150.8248470897163,75.75145924149368,-36.054769990989506,308984.44349504693,103602.2123900523,68928.68409457743,8,2018,1452,2
-1081.9850673586072,74.47197885169076,-37.43832202451579,308909.52475490386,105973.61787927704,76371.91236740185,0,2012,1455,2
-1011.7142703320949,74.05307416146708,-37.84777049018284,309175.2361775999,108449.00183915238,84697.00193868327,0,2013,1455,2
-940.7630472259422,74.33919081731408,-37.31949456034839,309785.9095246234,111007.75212031507,93870.30217007246,0,2011,1455,2
-869.8982149654047,75.1822246865509,-35.89952487298978,310727.0029389688,113636.24970076159,103848.77562281901,0,2010,1454,2
-799.8810896018514,76.4752260247215,-33.63607449909274,311969.3941523384,116326.98024489683,114581.69881086667,0,2011,1451,2
-731.4459961740342,78.17963432547994,-30.574054584682283,313474.10045428155,119076.41136205936,126012.76905640533,0,2008,1455,2
-665.2816923681994,80.33214096679113,-26.75090894597447,315196.3853467708,121882.48502354539,138082.1117625454,0,2011,1454,2
-602.0137433788713,83.025698351235,-22.19410651582165,317089.5798064087,124742.31816676338,150728.7226048645,0,2010,1452,2
-542.1958954054218,86.3747504141011,-16.922559744634285,319108.0418570887,127650.73487431675,163892.5435201893,0,2010,1454,2
-486.31514755850304,90.47879200134082,-10.952351154168221,321208.5484029291,130600.01795876613,177515.28780700336,0,2009,1451,2
-434.80103185401526,95.39109084628748,-4.305786100936514,323350.7619578363,133580.5413835171,191540.64281254628,0,2011,1454,2
-388.0317801872808,101.10001095542451,2.979097564993525,325497.46465153026,136581.56747447146,205913.96340985078,0,2009,1453,2
-346.3379549911206,107.52814907276806,10.842491245125697,327614.8657019238,139591.89930761262,220581.18158849058,0,2009,1452,2
-310.00421186585186,114.54170954927238,19.20118126530131,329673.1896578217,142600.51587548162,235487.3797533915,1,2010,1452,2
-279.26795848430254,121.9621810876562,27.951920506859967,331647.656553275,145597.34069507636,250575.79199731429,0,2008,1454,2
-254.3165357529722,129.5814673109869,36.979997495281005,333519.7887846141,148574.1369919533,265787.75263917557,0,2010,1457,2
-235.28684673155252,137.1794100059734,46.16970407304774,335278.4553175875,151525.13367678964,281063.0374514192,0,2010,1454,2
-222.2663891687947,144.53920941543672,55.4160423501323,336920.1191789986,154447.0281624628,296340.1917368816,0,2012,1452,2
-215.292489410114,151.46014449157562,64.6389261019555,338448.4213049853,157338.51674101545,311557.3658230239,0,2010,1453,2
-214.35096404369682,157.76675461855672,73.79462295551882,339873.3730710145,160199.56553515833,326653.2118067615,0,2010,1451,2
-219.37637018917502,163.31346721193032,82.87824154710867,341210.04647138406,163030.45493975843,341567.5294956405,0,2011,1451,2
-230.25388760227028,167.9860470208425,91.91811615768924,342476.6610916624,165830.67804075198,356242.4236408347,0,2010,1452,2
-246.82202978124675,171.69995170872838,100.96688315803287,343692.5661946424,168597.9700007949,370623.47382139554,0,2010,1452,2
-268.8762083790958,174.39457414174458,110.09226969858355,344876.5148105842,171327.81977522513,384660.31517628056,0,2009,1456,2
-296.17349303960935,176.0244611009945,119.3678654909963,346045.0703106305,174013.5523027859,398307.2675593332,0,2009,1453,2
-328.43694993458064,176.55148500616244,128.8654572611731,347211.2606711769,176646.71156956573,411523.7019784416,0,2010,1452,2
-365.3595971853203,175.9409110617148,138.65130727345436,348383.6944499601,179217.60959781072,424273.58736294473,0,2010,1452,2
-406.6099906214149,174.16045807172077,148.78519624567477,349565.90429674427,181716.08011480104,436524.7865385619,0,2010,1452,2
-451.8374433765372,171.18049961784126,159.31861535844712,350755.72880162246,184132.07786529014,448248.31979995006,0,2010,1452,2
-500.67579844211815,166.9744887641206,170.28936372136442,351944.7908012217,186455.7857485014,459417.7007713715,0,2009,1453,2
-552.7483189444544,161.519210967544,181.71307634071192,353118.1403482598,188677.43481905138,470008.8320568513,0,2010,1454,2
-607.6721943405145,154.79454955639875,193.5757317764292,354254.10727104906,190787.13023525343,480000.09734113334,0,2010,1452,2
-665.0615111069792,146.78136309890692,205.83032313878653,355324.41857774236,192774.94223673805,489372.2200166448,0,2009,1451,2
-724.5312730421784,137.45643498258156,218.39677205528372,356294.5759632924,194631.4343611852,498108.2083215786,0,2009,1451,2
-785.7005185301681,126.78611971854012,231.16249853357147,357124.3778237307,196348.356422093,506193.241439659,0,2009,1452,2
-848.1929836378918,114.71956180406619,243.98377091106028,357768.7650990345,197919.25067777588,513614.23692374036,0,2010,1453,2
-911.6387394212923,101.18103990546905,256.68989474319835,358179.30591567385,199340.04738124303,520359.4170668381,0,2009,1452,2
-975.6758128694452,86.0646074965902,269.0900835454893,358305.95762396755,200609.4926978371,526417.8465728089,0,2010,1453,2
-1039.9486308046403,69.23483537554888,280.9832212518013,358098.7649833762,201729.12518739753,531778.6826299927,0,2009,1451,2
-1104.103859772155,50.53235332288494,292.17114525435295,357509.73932547873,202702.86692102085,536430.291636756,0,2008,1455,2
-1167.7841469246102,29.780377137500814,302.4713282055062,356494.82354047295,203536.42923528148,540359.4917660418,0,2007,1454,2
-1230.6231449380891,6.79114333541903,311.7255189497708,355015.8629926243,204236.45787344774,543551.1966295342,0,2010,1451,2
-1292.2470655667898,-18.626024500759176,319.8048493159854,353042.8052531533,204809.2804999571,545988.5699754099,0,2009,1452,2
-1352.2795736194105,-46.65421528620588,326.6111188226637,350555.6863030143,205259.59263404945,547653.2701474602,0,2009,1455,2
-1410.3441569000458,-77.45642475247267,332.0746194467967,347545.8471599548,205589.54279987636,548525.4193712197,0,2007,1455,2
-1466.0642666681847,-111.16222489420204,336.1501415967145,344016.53079746896,205798.26262693483,548583.4751523525,0,2005,1456,3
-1519.0625944396907,-147.856506895018,338.8125287737229,339983.18398318277,205881.7447269414,547804.2980964938,0,2009,1456,3
-1568.9625780233075,-187.57134197473826,340.053464505225,335473.4712751969,205833.05261524368,546163.5880463781,0,2010,1451,3
-1615.3951626743094,-230.27815827051654,339.88023358795704,330526.8877549996,205642.7941794083,543636.6683713883,0,2010,1453,3
-1658.0061046171677,-275.8783267118553,338.31601777175666,325194.13516798255,205299.701047793,540199.3414316566,0,2006,1456,3
-1696.460668846687,-324.19324739575455,335.4011620217447,319536.0469129101,204791.32631692124,535828.6906067226,0,1992,1467,3
-1730.448982779865,-374.95469495593284,331.19449591580735,313621.5460293175,204104.98735876818,530504.0087582214,0,1989,1469,3
-1759.6920767225618,-427.7957299635369,325.77377766465224,307525.20157218334,203228.8033088549,524207.96876999916,0,2004,1461,3
-1783.9498549678374,-482.2465722980122,319.2348464842249,301324.7917530399,202152.74483075365,516928.0205954602,0,2000,1462,3
-1803.035353776816,-537.740134174784,311.6896006294275,295098.40364770655,200869.8337752223,508657.97525320045,0,1996,1468,3
-1816.8310521807214,-593.6237919815935,303.2640258036823,288921.77234505524,199377.26632484313,499399.6311353696,0,1993,1465,3
-1825.3000447179493,-649.1743041600785,294.097642474876,282866.7124722958,197677.0374218034,489164.148374274,0,1993,1471,3
-1828.4918724968559,-703.6170709288722,284.34425145930095,277000.1935764461,195775.99600583737,477973.0348528804,0,1992,1471,3
-1826.5444389273875,-756.142900488852,274.1727161695292,271383.9028415693,193685.50632510922,465858.9969416612,0,1986,1477,3
-1819.6835790158962,-805.9154843938171,263.7655663552541,266074.295824341,191420.66214704627,452866.52143693744,0,1970,1489,3
-1808.2234389276477,-852.0726730627351,253.3143564879586,261122.5683674189,188998.9620378149,439051.72527027066,0,1969,1489,3
-1792.5686883935414,-893.7257332600075,243.01497993555563,256574.3572059689,186439.02546573008,424481.85046507546,0,1979,1482,3
-1773.2126347610422,-929.9650590838527,233.06573652332554,252468.90952885736,183759.9866104827,409234.4429519344,0,1958,1499,3
-1750.7217141071721,-959.8814823750334,223.6654744137737,248837.17603171009,180981.44366394004,393395.64453444316,0,1962,1496,3
-1725.7056128146778,-982.596012039113,215.01011738091606,245699.37404591453,178123.65195433208,377058.630948299,0,1967,1489,3
-1698.7768775343823,-997.2945390838777,207.28706669962907,243062.72140280184,175207.82783507477,360323.29525464226,0,1970,1485,3
-1670.5058714257464,-1003.2811730274498,200.6616529338808,240919.1570187743,172256.54163037086,343296.66981132794,0,1984,1481,3
-1641.3896256920038,-1000.0452242031691,195.25895916684595,239243.6897883378,169294.26251002145,326094.0857422376,0,1984,1475,3
-1611.8490196598818,-987.3231779609339,191.1550523451108,237994.83371364535,166347.8256933565,308840.93132121273,0,1982,1475,3
-1582.2472619660275,-965.1514393918443,188.37508005561529,237117.26456848218,163446.39707688117,291673.47094837605,0,1978,1479,3
-1552.9126858425689,-933.9010235369991,186.88808239723093,236545.59482272377,160620.7854797491,274737.71641112526,0,1984,1479,3
-1524.1513332761554,-894.2755041686926,186.60504715870317,236209.38467623762,157901.88036818686,258184.99298669212,0,1988,1473,3
-1496.2445841678793,-847.2688619842637,187.38621269015022,236039.9070946218,155318.256674312,242163.34747991312,0,1986,1478,3
-1469.437428057163,-794.104626321249,189.04988545778005,235976.55603029247,152894.01848886162,226808.584998494,0,1980,1477,3
-1443.9211080238956,-736.1739493837539,191.3759201595613,235970.49873456586,150647.5808916704,212238.57137522867,0,1985,1470,3
-1419.8097380794009,-674.9739372456837,194.10501210029014,235985.70027099983,148590.98846014237,198550.01626396822,0,1997,1465,3
-1397.1188210791545,-612.0592934736735,196.9375707488783,235998.1726465123,146729.7714973971,185817.40483373846,63,1982,1474,3
-1375.7567967045659,-549.0152198863234,199.5371299230693,235993.7672544925,145064.12977456907,174094.5140504599,505,1983,1474,3
-1355.5310629356502,-487.43634418076067,201.54327157745442,235965.09088549382,143591.76837834163,163417.1557324362,1237,2011,1454,3
-1336.1659463790766,-428.89786942933654,202.5928620797502,235908.91705770572,142311.33995005948,153805.6862930951,2176,2011,1454,3
-1317.3366100598048,-374.88323750555026,202.34582033566588,235825.24810542175,141225.09009356945,145266.55250013663,2590,2010,1455,3
-1298.7208015523297,-326.6155517910506,200.5160282804593,235719.01374017497,140339.6931881986,137792.279252008,2528,2012,1453,3
-1280.0516239995109,-284.8260885725145,196.9074800461924,235605.45900718332,139664.60309807555,131360.1029395672,2659,2012,1449,3
-1261.156238876161,-249.60345380939472,191.4542947691706,235517.46972435064,139208.7576365931,125931.05258274895,2580,2010,1453,3
-1241.9868322035509,-220.45571293934464,184.26231471915125,235509.7062889564,138977.0267189828,121451.83687033258,2517,2012,1452,3
-1222.6407051104175,-196.5644498975515,175.63703679072987,235655.35342930097,138966.86746547,117859.78820243989,2394,2010,1453,3
-1203.3500315763333,-177.0570786747395,166.07017997466525,236036.03045230798,139165.81366594238,115088.50976681849,2440,2009,1453,3
-1184.4333248948415,-161.16321116951977,156.16300337745056,236728.1345563252,139550.2406637603,113072.46799945072,2275,2012,1451,3
-1166.2233881554298,-148.26140969046114,146.50210156250785,237789.23414979834,140085.13671075125,111750.47996721328,2288,2010,1451,3
-1149.005344115389,-137.8647456302578,137.55253069381564,239249.9547960609,140725.28879828265,111067.52482975168,2337,2019,1452,3
-1132.9836898958208,-129.57492524686091,129.61684119068929,241115.0353091578,141419.4529523087,110973.82917301559,2366,2025,1452,0
-1118.2685461682388,-123.03036714197529,122.84672170799585,243370.63851719184,142117.58736274007,111421.71930723859,2406,2015,1451,0
-1104.8737356033469,-117.87228572618517,117.27330492395535,245991.4016792352,142777.68679894006,112362.5457771353,2425,2022,1452,0
-1092.7293848387926,-113.73949133488344,112.84006131417024,248943.54099590666,143369.28177552702,113745.82418584602,2516,2027,1451,0
-1081.7087779077983,-110.28826271077595,109.43647681117773,252185.34626056778,143874.0962632959,115520.9463253398,2540,2047,1452,0
-1071.6621637086005,-107.22721945486344,106.92573544827896,255667.58616838613,144285.02889185544,117640.16497916661,2551,2043,1455,0
-1062.4468311302865,-104.34841490100882,105.15961351708327,259334.68712845998,144604.15702181752,120060.90198783601,2570,2062,1455,0
-1053.9481391248062,-101.53718441353838,103.98912732459722,263127.2866091598,144840.20496933034,122746.2608132278,2594,2054,1453,0
-1046.0901779156786,-98.75978854123287,103.27942598446144,266986.48469348316,145005.58819459323,125664.01742956486,2606,2057,1452,0
-1038.8354421631252,-96.04079168247146,102.92140907563872,270858.1218646125,145113.70939745152,128784.96413084713,2611,2071,1453,0
-1032.176477604512,-93.43931610603168,102.82791429106253,274695.42100727715,145176.9485712245,132081.32081745093,2633,2076,1451,0
-1026.123164853727,-91.02537347349215,102.91546274518834,278460.27204788604,145205.00796105017,135525.50883363304,2612,2064,1454,0
-1020.6893783977873,-88.86044059756537,103.08613465026725,282123.55196778086,145203.81608647713,139089.39092462425,2561,2072,1452,0
-1015.8822330748704,-86.98677806820803,103.22291562902817,285664.47329779994,145175.55718864026,142744.13789950195,2493,2074,1452,0
-1011.6937957271327,-85.42261482240545,103.2008109914302,289069.34690754337,145119.6882107506,146460.71209669585,2443,2080,1453,0
-1008.0962922204534,-84.16064651854815,102.90630846475733,292330.17721072404,145034.2239933309,150210.53243366902,2329,2087,1455,0
-1005.0431682230119,-83.17070076409762,102.25625790736306,295443.1114107686,144916.81889151622,153966.04420686953,2187,2082,1451,0
-1002.4748850381302,-82.40532544910378,101.2107817956587,298406.6539926496,144765.6207855361,157701.30862268523,2028,2091,1452,0
-1000.3259925104389,-81.80501275384836,99.7758016886473,301219.9990836511,144579.7811841465,161392.43558905512,1850,2088,1452,0
-998.5320719383997,-81.3028274623957,97.99261856367549,303881.96656833374,144359.47833068488,165017.71133591488,1705,2098,1453,0
-997.036803241789,-80.8306205887883,95.9186835721392,306390.5694474166,144105.64138293138,168557.65066184953,1510,2108,1455,0
-995.7968534084533,-80.32615923130408,93.61063718067943,308742.97357410315,143819.69666079505,171994.95997781778,1267,2108,1455,0
-994.7814785003227,-79.73933902977714,91.11795993509942,310935.80003525224,143503.47777655537,175314.32443866052,1222,2099,1454,0
-993.9680534075825,-79.03729108006729,88.48509480090449,312965.77120724967,143159.24732840166,178502.2032844243,1103,2104,1456,0
-993.3377936026841,-78.20746976160062,85.7552294642241,314830.3649839701,142789.71800432086,181546.695718799,919,2123,1454,0
-992.8736019817239,-77.25710831445548,82.97143131865896,316528.2845351841,142397.92478595258,184437.48396113183,815,2107,1455,0
-992.5588803451265,-76.20921894752139,80.1750722162465,318059.9460072173,141986.89100286775,187165.93918966482,753,2136,1455,0
-992.3765730010522,-75.09719801367129,77.40394365514386,319427.9162228587,141559.28346696732,189725.23303726115,618,2137,1457,0
-992.3091556805347,-73.9591564406841,74.69178071645717,320637.05007448565,141117.2734472734,192110.2908338739,536,2131,1457,0
-992.340015202451,-72.8317546735675,72.069815913312,321694.3645305532,140662.60058598444,194317.68154747967,453,2127,1454,0
-992.4555139629612,-71.74494030042432,69.56971296539878,322608.746586132,140196.72077875774,196345.4699140601,385,2135,1458,0
-992.6465644971635,-70.71926788305193,67.22547715337957,323390.4383824742,139720.91793416612,198192.9961379241,319,2145,1459,0
-992.9089002351507,-69.76550034218651,65.07258151914444,324050.2920378604,139236.31134754405,199860.65387086567,311,2174,1461,0
-993.2419104961622,-68.88600559156593,63.14530577531962,324599.01956747693,138743.8071301066,201349.6945077917,236,2165,1465,0
-993.6466030295587,-68.07807983966023,61.474502916260725,325046.65071645303,138244.1077602646,202662.0678161603,189,2179,1477,0
-994.123671730556,-67.33820602964111,60.086910967203025,325402.18990981206,137737.84210787603,203800.34036333498,164,2206,1635,0
-994.6726735754938,-66.66510555946566,59.00573558897709,325673.4402199882,137225.7677464982,204767.64517325946,136,2207,1639,0
-995.2926494007186,-66.06096788899079,58.2513464337651,325867.0250001447,136708.905525898,205567.60909421885,163,2183,1636,0
-995.983465634836,-65.53191577951874,57.840957666581645,325988.579256917,136188.50479193995,206204.28602402497,90,2246,1641,0
-996.7466587942816,-65.08801355676583,57.78728832355354,326042.994767541,135665.89553366674,206682.091487834,73,2209,1646,0
-997.5849392752787,-64.74204061670164,58.09697543141524,326034.64769209933,135142.3366342643,207005.69718365846,88,2191,1647,0
-998.5005014274146,-64.5068808886481,58.76948702719846,325967.6205141339,134618.90515308542,207179.89674358902,56,2189,1667,0
-999.4931837250979,-64.39289131091488,59.79714959248607,325845.86578029307,134096.47227288657,207209.49467153125,67,2210,1667,1
-1000.5597104031015,-64.40671945316443,61.16670502209447,325673.2162856462,133575.79403862602,207099.2605499371,36,2221,1683,1
-1001.6946974285185,-64.55187610349843,62.86206391952568,325453.2544451391,133057.65508276518,206853.95264546172,26,2208,1688,1
-1002.8929816194317,-64.8304455154511,64.86675837733732,325189.1607448448,132542.96017588358,206478.3770902949,1,2216,1704,1
-1004.1523500847095,-65.2449283260334,67.16499966069489,324883.64385909826,132032.6750140869,205977.42233428752,0,2241,1697,1
-1005.4761085284875,-65.79926599685375,69.74201357734844,324538.9692972161,131527.62382043203,205356.02002837602,16,2273,1691,1
-1006.8745782762608,-66.49849725028545,72.58452705989423,324157.05716011964,131028.30244326228,204619.0544967308,6,2274,1697,1
-1008.3645974247901,-67.34713940489966,75.6813019737533,323739.60801429074,130534.79017154216,203771.2544510697,0,2275,1718,1
-1009.96755945374,-68.34703001027302,79.02323699099357,323288.21758133895,130046.6774364014,202817.07130763543,0,2253,1739,1
-1011.707418352347,-69.49576597223847,82.60285250291696,322804.4498387403,129562.98012483073,201760.5974463739,0,2231,1779,1
-1013.6095394595685,-70.78650302294939,86.41360235968676,322289.8283278796,129082.09898480958,200605.53962615295,0,2277,1760,1
-1015.700712307066,-72.20878138740954,90.44942912168172,321745.7352814029,128601.84589069446,199355.19045528246,0,2290,1751,1
-1018.0102397061454,-73.74953561897402,94.704417011175,321173.30051980796,128119.52531351728,198012.41938962758,0,2297,1762,1
-1020.5715349536798,-75.39398282633574,99.17239663779145,320573.358323325,127632.0409730906,196579.6942813558,0,2313,1771,1
-1023.4234844033167,-77.12641877022828,103.84655635675507,319946.46078291116,127135.99100756385,195059.0731134898,0,2367,1783,1
-1026.610885342463,-78.93081781199149,108.71907501040401,319292.93596385483,126627.74742706101,193452.19370685614,0,2362,1787,1
-1030.183910636623,-80.79132033785939,113.78067045228798,318613.0034085787,126103.53533784549,191760.31412101138,0,2323,1812,1
-1034.197166260377,-82.69263781419438,119.02005219009547,317906.9351820421,125559.5187835076,189984.37834620883,0,2326,1817,1
-1038.7091075371868,-84.62009769235397,124.42354794190001,317175.24412169104,124991.88978553098,188125.04004620854,0,2332,1814,1
-1043.7827797329765,-86.55925110886099,129.97475930291606,316418.87437992473,124396.95625460113,186182.60129417558,0,2351,1827,1
-1049.4872813583163,-88.4958498086737,135.65226815561203,315639.37444937066,123771.18177256052,184156.96243688202,0,2357,1823,1
-1055.8972054922924,-90.41646313659572,141.42454078885083,314839.1091457666,123111.10817622575,182047.638277606,0,2375,1851,1
-1063.0888261353173,-92.30698028190571,147.24771110971363,314021.5935974541,122413.26994583996,179853.7260147334,0,2373,1867,1
-1071.1357985971795,-94.1477825616297,153.0710827849608,313191.8392974864,121674.34437002613,177573.83045192686,0,2335,1904,1
-1080.107986023718,-95.90947162292906,158.84600821958333,312356.38508413074,120891.54315341073,175206.01278814502,0,2347,1891,1
-1090.0728207535283,-97.55130020559109,164.5323709313427,311522.88708210475,120062.93267113471,172747.73918116925,0,2287,1944,1
-1101.095651125367,-99.02099996627501,170.1007666515717,310699.59047687217,119187.43437433669,170195.89882530057,0,2237,2015,1
-1113.2381890753747,-100.2559749487925,175.53060570963643,309894.9734772936,118264.56101047152,167546.88876396389,0,2274,2026,1
-1126.5569457011934,-101.1856977324115,180.80663325577385,309117.49801471934,117294.10258036185,164796.6325687126,0,2294,2056,1
-1141.1025386965798,-101.7333534642699,185.91617473504002,308375.3772734555,116275.96415881238,161940.59365662708,0,2180,2132,1
-1156.9193107434307,-101.81603717539382,190.84669516608014,307676.32221275155,115210.15355270528,158973.84805598372,0,2100,2179,1
-1174.0445385286052,-101.34514068606568,195.58285857065366,307027.2262704375,114096.73982892816,155891.13277506,0,2107,2227,1
-1192.5066205399285,-100.22825878067614,200.1035992743503,306433.8896863748,112935.75365089613,152686.9551908858,0,2053,2081,1
-1212.3223027877743,-98.37240584211402,204.37939610045083,305900.84518713254,111727.1102124015,149355.87373426522,0,1984,2145,1
-1233.493338287926,-95.68781270079973,208.3698211980035,305431.2254793289,110470.56669863414,145892.85892571262,1,1883,2195,1
-1256.0027511124852,-92.0921090109484,212.02249463014394,305026.6995210098,109165.760001618,142293.686222022,0,1885,2207,1
-1279.811401177347,-87.51509735787593,215.27424334975632,304687.5127448917,107812.37607864637,138555.38442708866,0,1808,2287,1
-1304.8553758782714,-81.90322588661,218.05384645105894,304412.55868690694,106410.40463946217,134676.7077381487,0,1715,2354,1
-1331.0442574007907,-75.22242188331565,220.28572395290584,304199.38753860135,104960.40048436465,130658.55099286618,0,1619,2399,1
-1358.260373291155,-67.4593778010628,221.89427606432687,304044.1232907951,103463.69756985598,126504.25820389703,4,1534,2469,1
-1386.358112619132,-58.62214029561132,222.8075633057989,303941.34977678844,101922.55361104508,122219.9197019615,0,1445,2499,1
-1415.1626904167615,-48.74042006743669,222.9592722948454,303884.0241036204,100340.17149054773,117814.66391333645,5,1409,2523,1
-1444.4689941471865,-37.86580817658873,222.28937062882383,303863.41603024356,98720.559971879,113300.8145195408,0,1359,2561,1
-1474.0400410451844,-26.07228067733212,220.74394694473455,303869.08227784286,97068.36894152376,108694.01717564685,0,1289,2595,1
-1503.6046084835623,-13.45680643184235,218.27439629321557,303888.9097613804,95388.81316224039,104013.3800299372,0,1171,2643,1
-1532.8547443622117,-0.13938621058769762,214.83620343456664,303909.21898362663,93687.64583751044,99281.45131198493,0,1086,2642,1
-1561.4428811972646,13.736975587421643,210.38797719255766,303914.87745569175,91971.22327081344,94524.15097411486,0,992,2679,1
-1588.9790084162896,28.005669376774012,204.89195036894554,303889.4279362667,90246.74793801138,89770.7356499281,3,873,2702,1
-1615.0299589432768,42.47589550548003,198.31691792260992,303815.2773693904,88522.66021743865,85053.59110639595,8,810,2705,1
-1639.1214425720311,56.93273423479137,190.64363457567623,303673.8942537829,86809.11555747755,80407.97692718549,13,751,2715,1
-1660.7452748730927,71.13892888151489,181.87341425864605,303445.8586134073,85118.53188876904,75871.8340989709,16,705,2689,1
-1679.3751288112232,84.8395926695291,172.0404567037605,303110.66405818705,83466.17343954371,71485.468042381,11,698,2674,1
-1694.4854675739514,97.76837683211868,161.2235219109181,302646.32955823315,81870.57518559371,67291.28198677307,17,807,2633,1
-1705.5667811081016,109.65335999154482,149.54925955276028,302028.9684900937,80353.40400243807,63333.733630336676,16,963,2545,1
-1712.1379869948973,120.2219923178555,137.18397650769174,301232.5324349856,78938.58269189838,59659.30780727977,13,1136,2440,1
-1713.7576296332186,129.20325117415643,124.31914445263058,300229.1240307369,77651.18655864545,56316.54346199916,0,1243,2331,1
-1710.0380627301968,136.3303195310792,111.15651728066483,298990.6113583257,76516.71387200059,53356.19866867218,0,1384,2180,1
-1700.6678890561955,141.3529483362164,97.89310005968471,297491.9094917446,75560.8263964004,50831.315307909514,13,1507,2039,1
-1685.4366334475953,144.0617943591066,84.70892670017228,295715.05169314746,74809.402730328,48797.082558047805,6,1631,1896,1
-1664.25081578629,144.32316463480467,71.7630005581733,293653.4894530044,74288.48048849506,47310.29855664275,4,1670,1809,1
-1637.137263679779,142.12194615822725,59.196128206095466,291316.8386667738,74023.60641775484,46428.01997957314,8,1745,1746,1
-1604.2342735551642,137.59680049579129,47.13450736320797,288734.99207907147,74038.66627804913,46205.6000276397,5,1851,1677,1
-1565.769999547676,131.04719363654735,35.69128064028421,285960.21555057896,74354.21050790472,46694.47950352429,1,1909,1609,1
-1522.0301045323183,122.90971380096406,24.971730925605705,283067.4464416273,74984.97226582188,47939.8840239358,6,1919,1575,1
-1473.3306258150656,113.71800703481921,15.08568143947651,280153.102000286,75937.07197649362,49979.11148052124,0,1927,1575,1
-1420.01285191575,104.05306892774684,6.157343950753924,277330.45814459823,77205.63669071278,52840.86743858485,2,1971,1522,1
-1362.4579745407837,94.48136035794182,-1.6780657797211487,274719.96054938727,78772.86205275716,56545.09119102783,0,1952,1510,2
-1301.107129961265,85.49631945487205,-8.291520454920326,272437.4539205538,80606.9487585229,61102.64781361461,0,2012,1455,2
-1236.4720198787836,77.48183010771749,-13.58918722356171,270583.519215407,82663.41375309718,66515.05249867788,0,2010,1454,2
-1169.1295634325238,70.69530954563052,-17.546537865684957,269234.0687180868,84889.62177240399,72774.74404558708,0,2012,1454,2
-1099.7085305191426,65.26551511622182,-20.230068931234346,268434.1388947602,87231.01127451054,79865.82237184535,0,2012,1452,2
-1028.8762005852984,61.20718411483897,-21.791788152171065,268197.55427548825,89637.50793514814,87765.0692894357,0,2011,1456,2
-957.3239765235583,58.45092458077633,-22.437256718127642,268511.49665195163,92069.83988250345,96443.33267304834,0,2012,1453,2
-885.753659741203,56.88047892154067,-22.38219230900211,269342.6547308974,94503.83053850464,105866.67373554969,5,2009,1457,2
-814.8628073247309,56.37310066288936,-21.810672974129545,270643.210936942,96930.23466490649,115997.003347624,0,2010,1452,2
-745.3226099875434,56.836223950039475,-20.83970619834531,272356.8871948137,99350.51544885221,126792.84995484739,0,2010,1453,2
-677.7584654265428,58.22149163125017,-19.502617948242083,274423.97506863833,101771.29581877319,138210.12963999098,0,2009,1453,2
-612.7470148908216,60.50626697316246,-17.766285832763113,276784.1666959576,104199.55647763277,150202.6766934452,0,2010,1451,2
-550.821758026361,63.65766198912883,-15.574576586103127,279378.08104380534,106638.92669658613,162722.89457269426,0,2010,1451,2
-492.47516694736504,67.60518309026496,-12.888926308191813,282148.3643646971,109087.55874397368,175722.1212174703,1,2010,1454,2
-438.1559935561554,72.23557883922899,-9.707114606701742,285040.7937480256,111538.43726583396,189150.52861507185,5,2008,1455,2
-388.2633517236002,77.40346612715014,-6.065031573130759,288005.82608372497,113981.74632252213,202957.17124927137,6,2008,1453,2
-343.1417628044513,82.94514697960109,-2.030822434440055,291000.15740416263,116407.59748920711,217089.9570235332,0,2012,1452,2
-303.08050669868436,88.69118765427002,2.307231667226825,293987.844812582,118807.89299345399,231495.48151791742,0,2010,1454,2
-268.3150895260843,94.47994911550032,6.858146173827849,296941.15240826696,121177.39468651684,246119.39177329928,0,2011,1454,2
-239.02954754187297,100.16986803611155,11.543298187433251,299840.9034267601,123514.0707253665,260906.85666283302,0,2010,1454,2
-215.35941611522182,105.6458895996573,16.302782991550682,302675.95840628835,125818.55425692779,275802.8521112724,0,2009,1451,2
-197.39375770870458,110.82045658348063,21.094952411411477,305442.00300177163,128093.04096871462,290752.94387871097,0,2011,1453,2
-185.1765944567834,115.63135511618454,25.89355234297296,308140.14018957136,130340.23999594622,305704.12577869324,3,2008,1451,2
-178.70915856281403,120.03772128354507,30.68506583036672,310775.58408016287,132562.72947356483,320605.2541868814,0,2011,1453,2
-177.95277680812418,124.01527993986636,35.467271653612485,313356.44984725316,134762.67311451127,335407.683088125,0,2010,1454,2
-182.83233505077104,127.55082498766981,40.24942309775248,315892.4953804486,136941.85371645103,350065.7188607516,0,2011,1454,2
-193.24053143740144,130.6353712591183,45.053900098834085,318393.703642907,139102.01563296493,364536.23353766557,0,2011,1453,2
-209.04151489946474,133.25714626359945,49.91769934709873,320868.8605485429,141245.20701067708,378777.8711146458,0,2011,1453,2
-230.07320860930017,135.395669503222,54.89172251191093,323324.3250549058,143373.84422305034,392750.5765904391,2,2009,1451,2
-256.1494717864302,137.01664137693822,60.037292469972336,325762.9716619467,145490.5617657922,406415.7731653513,0,2009,1452,2
-287.0620807895547,138.0683159766943,65.42106509654596,328183.37269157823,147597.93662040407,419736.58378002763,0,2010,1451,2
-322.5828502881102,138.48067747447163,71.10950211904624,330579.4189705927,149698.1400069085,432677.74137810426,0,2009,1453,2
-362.4669697157814,138.1671902994191,77.16345361744825,332940.39730956143,151792.6298707546,445205.7219924082,0,2009,1451,2
-406.45570251719147,137.0279330504692,83.63392089372907,335251.26533194195,153881.92134385902,457288.84395443357,0,2010,1451,2
-454.277897904435,134.95401385811323,90.55921471566329,337492.9331403959,155965.4348653024,468896.983810919,0,2008,1453,2
-505.6524722014788,131.83364958475795,97.9622265136037,339642.5620405773,158041.4314931347,480001.38734804204,0,2008,1455,2
-560.2900567445062,127.55785649273567,105.84737622016544,341673.74962202454,160106.9622424392,490574.4519366238,2,2008,1451,2
-617.8921721717345,122.02233515694347,114.1980889688746,343556.51373556396,162157.88994218674,500589.2649802217,0,2009,1451,2
-678.1504544517403,115.12460887281209,122.97557644346698,345257.2368400315,164189.1702578859,510019.3315256378,0,2009,1451,2
-740.745969892135,106.75855341325091,132.11885962174634,346738.64184761315,166195.31119355926,518838.3792482611,0,2009,1453,2
-805.3485112169789,96.8082015169093,141.545827021831,347959.8781464389,168170.90641093574,527020.0267678034,0,2009,1452,2
-871.6181118592799,85.14162197108138,151.15542172333824,348876.91200777894,170111.2708757012,534537.6386400209,0,2009,1454,2
-939.2061046227677,71.60733528837959,160.8301444996899,349443.19655075937,172012.9011552918,541364.2328060344,0,2009,1452,2
-1007.7523033129338,56.03558386287663,170.43885427751118,349610.75033476186,173873.4530512022,547472.2226719087,0,2009,1455,2
-1076.879975421554,38.24356518691342,179.841510664589,349331.976347244,175691.33570250642,552833.2737322774,0,2008,1455,2
-1146.18996874304,18.04248178651599,188.89593967817171,348561.906062597,177465.12978221773,557418.2603269316,0,2008,1454,2
-1215.2566034623355,-4.753955345140939,197.4661298374782,347260.48703966936,179192.8597355107,561197.2328040912,0,2008,1453,2
-1283.6288963714082,-30.319222377072535,205.43086993350735,345394.93327146844,180871.10124425875,564139.5786484204,0,2008,1454,2
-1350.8337543183616,-58.80442229827681,212.68845933467756,342941.6588585844,182494.11908917833,566214.2379956681,0,2007,1453,2
-1416.3786226073214,-90.33378336892252,219.15516010772365,339887.3754739732,184053.365377582,567389.8437442827,0,2009,1453,2
-1479.7573307691548,-125.00584046280913,224.76011715497268,336229.7455828442,185537.45421575755,567635.0112501663,0,2006,1453,3
-1540.4578750682228,-162.89460970232906,229.44078106329926,331978.047249825,186932.42771821978,566918.7852026573,0,2008,1452,3
-1597.9699025404948,-204.04298385968917,233.14152680849378,327153.95215812366,188222.14008156178,565211.1247961563,0,2008,1453,3
-1651.7941340255422,-248.44649930622336,235.81582993288998,321792.3510594657,189388.71090251688,562483.4968171843,0,2008,1453,3
-1701.4509160504813,-296.0331834731094,237.42977618508678,315942.0352105441,190412.88526702553,558709.5748115733,0,2005,1459,3
-1746.4867491806667,-346.6446266927805,237.9639823745735,309665.65882526024,191274.2816699155,553866.0081984169,0,2008,1455,3
-1786.4838214355843,-400.01860377440676,237.41277079762943,303038.533525133,191951.7980041733,547933.352647056,0,2009,1456,3
-1821.0715049601358,-455.7750750149636,235.78183311394756,296146.84475880273,192424.29005322672,540897.2549356711,0,2005,1461,3
-1849.938926935652,-513.4127330134064,233.08729020233048,289085.60106282367,192671.66890679568,532749.9825174928,0,2000,1467,3
-1872.8524546265714,-572.3196443936365,229.35848966893855,281955.8891255043,192676.5575937624,523492.32389219204,0,1999,1463,3
-1889.6743840366626,-631.7893641022652,224.64354658911432,274862.12518600107,192425.9675299159,513135.57799836993,0,1993,1469,3
-1900.376748795771,-691.0339766064806,219.0151573247962,267909.7729148195,191912.37866136542,501702.980011916,0,1989,1476,3
-1905.0485235470046,-749.194173752373,212.57623370508705,261202.7725880834,191134.2517541704,489230.1681111933,0,1971,1486,3
-1903.895410422891,-805.3449706506631,205.46400265688953,254840.93357502774,190096.0692624819,475765.2074734177,0,1972,1482,3
-1897.235174961472,-858.4991038860242,197.84885388545712,248917.42978003333,188807.7717621899,461368.41311231686,0,1972,1486,3
-1885.4921694310212,-907.616569831068,189.92841505505737,243515.56680439762,187283.74670011696,446111.5093225395,0,1966,1494,3
-1869.190708337504,-951.6214372428066,181.9212632181194,238705.4026445573,185542.0513188563,430076.52923568315,0,1935,1514,3
-1848.9391065623977,-989.4273465848404,174.06069939327816,234540.8426079157,183604.3173110712,413354.5936794323,0,1937,1514,3
-1825.392970582378,-1019.9745745084992,166.58804480710668,231056.62654110708,181496.00606430095,396044.0041544927,0,1931,1521,3
-1799.204738489921,-1042.2690524934121,159.74676167049424,228265.7041271221,179246.55204053686,378248.8488272965,0,1936,1519,3
-1770.9783438724887,-1055.4271502778988,153.773197340207,226157.920711027,176889.25387661665,360079.54940092284,0,1968,1492,3
-1741.240783425145,-1058.7451343838532,148.8807948350399,224699.9433346201,174460.9940775403,341654.9348087506,1,1982,1481,3
