AccX (g),AccY (g),AccZ (g),GyroX (deg/s),GyroY (deg/s),GyroZ (deg/s),Heel ADC0,MidFoot ADC1,Toe ADC2,LABEL
-1014.804915455267,65.67949641935995,48.4831785478081,152856.10574605034,175491.488920478,175325.13629946706,488,2014,1507,4
-1014.4209787059721,68.39038478800452,43.50723510478136,153629.59503491165,174874.07895886028,175592.42519160325,477,2034,1493,4
-1014.0759522123258,71.04963287638456,38.613239601008104,154376.2057807294,174262.6831631877,175858.77082886538,375,2015,1507,4
-1013.7860651149321,73.61913762401768,33.849269495419925,155088.1275525833,173662.649849139,176119.51196793935,419,2023,1507,4
-1013.566011605976,76.05826473529127,29.25925413921937,155758.2201617929,173078.81564212943,176370.42181957746,323,2026,1520,4
-1013.4279404581622,78.32422637766307,24.881085442528306,156380.27236469218,172515.273873452,176607.9354193145,285,2011,1559,4
-1013.3806574535447,80.37365173942382,20.74522742215954,156949.21177957414,171975.17682990496,176829.3146130622,244,2001,1574,4
-1013.4290381954214,82.16543976818507,16.87293309580825,157461.22026911055,171460.65206190076,177032.68299399543,205,2030,1567,4
-1013.5738636781209,83.66321626432004,13.274597883596163,157913.84092581284,170972.79083728112,177216.954814804,200,2025,1583,4
-1013.8123587229755,84.83546269951391,9.949543717061964,158306.09080074614,170511.68135094337,177381.67444341542,146,1990,1600,4
-1014.1394464429134,85.65337808744194,6.887311976334987,158638.55994248917,170076.4942176562,177526.68247225048,179,1972,1628,4
-1014.5490364392451,86.08870319226862,4.06988960481422,158913.52809871733,169665.5886124071,177651.5825892935,139,1938,1652,4
-1015.0343168516932,86.11465951199305,1.4744553942976235,159135.0014947662,169276.61319949504,177755.31717185592,121,1964,1628,4
-1015.5869310484915,85.71114691666217,-0.9244745353283175,159308.42578753066,168906.66517865565,177836.3285383894,124,1919,1691,4
-1016.1958437467702,84.87111263534167,-3.154314033689069,159440.04484813733,168552.60515400785,177893.3402723824,46,1944,1680,4
-1016.8467954292628,83.60310172147678,-5.2435019035524,159536.24163765353,168211.48601603456,177926.17078737516,19,1931,1701,4
-1017.5230570107764,81.92756711795171,-7.218919408582131,159603.13026718778,167880.96502579527,177936.05826905448,0,1861,1764,4
-1018.20764837655,79.86965552534555,-9.10270886824063,159646.36019321036,167559.61770417241,177925.50567354565,6,1768,1855,4
-1018.8867430032076,77.45356605775451,-10.909973922104747,159671.0865054125,167247.02705518345,177897.74556380775,29,1723,1887,4
-1019.5534051423023,74.7005787230367,-12.64770503899605,159682.13299948996,166943.54721031222,177855.91825796917,7,1766,1866,4
-1020.20962724568,71.62993112489117,-14.314967312978517,159684.2647012584,166649.858239369,177802.3284285033,16,1711,1925,4
-1020.8648616034478,68.26160161796618,-15.904830974534995,159682.42748923163,166366.460846911,177738.02346393332,5,1711,1947,4
-1021.531648357238,64.61996366881347,-17.40831235807114,159681.86730023613,166093.19332894747,177662.5977728538,12,1686,1969,4
-1022.2211229078972,60.73667349132177,-18.818719902118897,159688.08380140865,165828.9844104242,177574.17242338424,0,1591,2037,4
-1022.940609430787,56.65147346313225,-20.13371577719264,159706.60967196198,165572.0854741458,177469.65820312637,4,1583,2053,4
-1023.6933519207776,52.41107849226176,-21.35383593986631,159742.68627074495,165320.73953271823,177345.32357243044,0,1467,2161,4
-1024.4795378218162,48.0675292282384,-22.478459938634543,159800.97631162373,165073.89222492013,177197.45116931363,0,1459,2168,4
-1025.298011004374,43.676725206527266,-23.50129244528898,159885.36425055002,164831.5156560828,177022.89733635564,0,1447,2179,4
-1026.1480848223316,39.29660482841942,-24.40708410097302,159998.78317711613,164594.4440650263,176819.55987728445,0,1473,2187,4
-1027.0306922219665,34.984960397730944,-25.170851790509953,160143.07485386563,164363.93013074325,176586.6862703846,2,1426,2227,4
-1027.9486587288275,30.797076848760305,-25.76015057757806,160318.9352237975,164141.13899793837,176324.87536092353,0,1383,2275,4
-1028.9065264796593,26.782860742211728,-26.139304643383422,160525.91668308352,163926.6957687986,176035.78158282567,1,1353,2274,4
-1029.910223235421,22.984385111410948,-26.27339480723601,160762.40359306763,163720.45113888753,175721.70508707772,13,1269,2364,4
-1030.9666557622188,19.435205244879704,-26.131099501653885,161025.50464867995,163521.57160515874,175385.21601278026,0,1243,2391,4
-1032.0835878133175,16.16108839463879,-25.68677122406214,161310.89453702662,163328.8437154029,175028.83282399504,1,1264,2352,4
-1033.2706178762137,13.180958667568172,-24.921688014808918,161612.71025191998,163141.07006407846,174654.73803774753,3,1231,2388,4
-1034.541348628746,10.507141137321556,-23.82480661829283,161923.56415549034,162957.4930729226,174264.51466222224,0,1206,2432,4
-1035.9153535281466,8.145101907880363,-22.394011923051007,162234.6762060276,162778.08506124522,173858.939654251,10,1128,2487,4
-1037.4181568868717,6.09398009267905,-20.638387020355253,162536.2431094019,162603.51588130655,173437.87483033098,0,1106,2509,4
-1039.078286127974,4.3479506436456,-18.5809953707138,162818.15471315657,162434.79391114853,173000.2220765337,8,1119,2490,4
-1040.9231314281828,2.8978156363880863,-16.2596024572939,163070.84040784478,162272.87784781135,172543.91949055734,4,986,2551,4
-1042.9776500711055,1.733427521028166,-13.722212648709014,163285.95758628254,162118.60706458925,172065.96344332013,3,945,2597,4
-1045.2672886827863,0.8458616713507799,-11.019301280802647,163456.80043757774,161972.8887390868,171562.4375341338,0,920,2612,4
-1047.8214897101996,0.227372227953558,-8.19863634259406,163578.36730938143,161836.82337432253,171028.55657666174,0,841,2640,4
-1050.6736663900915,-0.1295950469011125,-5.304406481596326,163647.21500668014,161711.66701537455,170458.73792282364,4,792,2683,4
-1053.8584029851404,-0.23234980525338672,-2.3782488486191524,163661.33305047947,161598.7367612012,169846.74308465494,4,771,2715,4
-1057.409595122562,-0.08668839182926474,0.5393321799878128,163620.0946869546,161499.387737874,169185.93209465916,0,655,2769,4
-1061.3603396567755,0.30508334446067253,3.4082756259403135,163524.21342029714,161415.13483062296,168469.60450971188,2,639,2783,4
-1065.7429335468858,0.9455247722351084,6.189882808127493,163375.66207401702,161347.87646016377,167691.36330126034,0,614,2801,4
-1070.5888273986063,1.8412801428777665,8.848911216173715,163177.5654417751,161300.1073732568,166845.42665305172,4,577,2855,4
-1075.9294103248992,3.000196284186214,11.356115117350614,162934.1040832857,161275.02606541957,165926.82857258417,0,527,2853,4
-1081.7971105840757,4.428224828869602,13.690316444231042,162650.49119228031,161276.48026372248,164931.47953212462,0,466,2889,4
-1088.2254262535973,6.128142511025045,15.839195375344449,162333.057936736,161308.720030243,163856.0153022082,4,418,2906,4
-1095.247584467807,8.10079792409063,17.79904603335011,161989.4060503615,161376.00013983558,162697.41707794624,2,334,2934,4
-1102.8944380075502,10.348053994263408,19.57404884845702,161628.51878880576,161482.21127281195,161452.63820638016,9,333,2964,4
-1111.191993971248,12.876153871143483,21.175274656931265,161260.68082711365,161630.70121831962,160118.46965593597,9,319,2989,4
-1120.1589296428133,15.698532197164102,22.61971426832527,160897.16535534788,161824.25879394737,158691.6020018018,0,268,2979,4
-1129.804706071388,18.83681170349932,23.92939817092149,160549.8391403887,162065.14617425046,157168.78036041072,10,233,3003,4
-1140.128556699321,22.3193261662981,25.130013785440596,160230.80263712647,162355.105209346,155547.01197314294,4,221,3026,4
-1151.119054597755,26.17806220451269,26.24869439903635,159952.0570498257,162695.31826504023,153823.77533181023,7,207,3030,4
-1162.7539506105657,30.44493790720134,27.311028063712918,159725.19676470276,163086.33122123528,151997.13470056755,0,178,3047,4
-1174.9998564753798,35.147853621009276,28.33738806666957,159561.14662487802,163527.95782208088,150065.69474971716,1,112,3070,4
-1187.8110146405302,40.307499150293616,29.339530388819412,159469.99779257667,164019.20365281482,148028.49530963317,0,93,3081,4
-1201.127148674023,45.93564804167286,30.318351106597564,159460.9818321327,164558.2721095942,145884.92408128682,0,75,3102,4
-1214.8712209262494,52.03450630772481,31.262734522217492,159542.52837652442,165142.6849319843,143634.60884224012,4,62,3115,4
-1228.9474720570179,58.596403606441,32.149358079977034,159722.31933045387,165769.45209862533,141277.37784834052,9,21,3115,4
-1243.2396118769832,65.6035319145738,32.94328243449664,160007.28534678827,166435.21945411636,138813.38432858355,0,34,3107,4
-1257.6092089834708,73.02754594248199,33.59880949542494,160403.5448189129,167136.3852938198,136243.33301930482,6,32,3119,4
-1271.8951744521635,80.82884172436056,34.06057567851055,160916.32253359462,167869.1907894176,133568.7367903744,7,4,3131,4
-1285.9153331832301,88.95573373074416,34.2655727909054,161549.8757197523,168629.79205877628,130792.1875083312,3,15,3126,4
-1299.4698227161396,97.34399424551441,34.14621529210019,162307.4116290198,169414.30205323428,127917.67567091298,2,38,3122,4
-1312.3474559360757,105.91748904634032,33.634641134199974,163190.91093596935,170218.8133626879,124950.91859692415,2,22,3128,4
-1324.3364285389264,114.59032469940145,32.66898311627343,164200.77735791568,171039.44023991513,121899.57515249912,0,39,3107,4
-1335.2352384806325,123.2695061051594,31.19988425732034,165335.31922560194,171872.32542686918,118773.36193808311,0,45,3097,4
-1344.8591760256538,131.8572388415253,29.194351292524264,166590.07772671204,172713.53439205483,115584.13838884037,1,71,3093,4
-1353.0424402482129,140.25304323842713,26.63660838031266,167957.06923357997,173558.86801846634,112345.95074599334,3,92,3070,4
-1359.6360016484143,148.35552686877074,23.525944608505938,169424.16716400412,174403.69108778329,109074.99279439899,2,138,3048,4
-1364.5021435810256,156.06315403201202,19.871344711121527,170974.82568104894,175242.85828487668,105789.50986768036,11,187,2993,4
-1367.5101997764955,163.2733109473431,15.685300064618156,172588.15583779648,176070.73897776572,102509.8703551168,0,267,2956,4
-1368.536864754984,169.88055868522616,10.979864412491771,174239.38419660975,176881.3777506732,99258.85305885982,0,371,2879,4
-1367.46932456676,175.77701445344442,5.766464839242217,175900.71944667844,177668.91253953543,96061.82363965812,0,476,2799,4
-1364.2078469276992,180.85590122272401,0.05935833300619574,177542.34432440883,178428.17732762615,92946.63990583151,0,569,2704,4
-1358.6685240061433,185.01629370006614,-6.118500520186384,179133.47825262637,179155.25678175368,89943.32622688444,0,736,2580,4
-1350.7886655955963,188.16710168033273,-12.72792069881364,180643.77723568803,179847.79682729926,87083.61328526701,0,814,2505,4
-1340.533146483594,190.2306332646595,-19.70622504699433,182044.7660632017,180504.88078228163,84400.66755985857,2,954,2370,4
-1327.897088730742,191.15064347003522,-26.963632343668518,183311.0638715833,181126.40014626697,81929.065636588,0,1064,2287,4
-1312.9032528357368,190.9082174677451,-34.38344560122201,184421.8063824303,181712.1222699154,79704.67522832513,2,1123,2236,4
-1295.5968299745023,189.5384302592181,-41.823334778330654,185362.17732736465,182260.81812084417,77764.40059625296,0,1268,2119,4
-1276.0393445808902,187.13736967299357,-49.11753795518526,186124.5234114966,182769.54631675093,76145.87140049071,3,1373,2023,4
-1254.3013637196896,183.85683694115514,-56.08262176176432,186708.8466650892,183232.93096177364,74886.9757529698,0,1491,1910,4
-1230.4570264027886,179.8904666954401,-62.52691627240441,187122.49236287418,183642.5542121644,74025.36907938225,0,1584,1828,4
-1204.584019687097,175.4547160734663,-68.26156082823354,187378.67622543598,183986.81972751062,73598.08797468453,0,1732,1699,4
-1176.7683296946097,170.76681208876545,-73.11227693041673,187493.93263608738,184251.38111782947,73641.08344416258,0,1808,1636,4
-1147.1121037573141,166.02139378359706,-76.9322286941255,187485.5121040374,184419.88831052827,74188.58509499812,0,1836,1603,4
-1115.7429577788039,161.3687905228218,-79.61564535668863,187369.59925509413,184474.96135956157,75272.23008938212,0,1868,1576,4
-1082.8222560450295,156.90256803405288,-81.10799203269042,187160.24642291828,184399.49163106043,76919.86104962345,0,1881,1557,4
-1048.5506618395248,152.66241597403703,-81.40791759970847,186868.8630299827,184177.97874365884,79154.29411023573,0,1930,1511,4
-1013.1697054529167,148.64832706827954,-80.56156684479105,186504.27211405378,183797.5918735714,81992.42402999588,0,1944,1506,4
-976.9593799866151,144.83620469038556,-78.65372915599393,186073.09795382663,183249.03828583562,85444.68099773466,0,1960,1493,4
-940.2313520135084,141.19029195154516,-75.7984789119309,185580.21668099586,182527.2007950357,89514.76105703862,0,2004,1457,4
-903.3172459030335,137.67435391354792,-72.12926363525047,185029.28901477548,181631.40342177442,94199.73480269466,0,2011,1457,4
-866.5567156025079,134.26116421577626,-67.78984898699682,184423.51578973475,180565.38851106208,99490.5775900387,0,2016,1449,4
-830.2876304603734,130.9374245743913,-62.9265079962855,183766.485407043,179337.12350980466,105372.73641854251,0,2013,1449,4
-794.8347423454633,127.70413584605487,-57.67956372132141,183062.9369241657,177958.28881239265,111826.61965484105,0,2012,1450,4
-760.4993600572568,124.57469931993661,-52.175647203901974,182319.46134718801,176443.29205839697,118828.3331673008,0,2013,1450,4
-727.5546615429915,121.57325166749793,-46.522154263856606,181545.06932340722,174808.16750356465,126350.37527871648,0,2010,1450,4
-696.2444914522472,118.73430184844565,-40.80189327035629,180751.4232453985,173069.66018461925,134362.02708344243,0,2011,1450,4
-666.7836043109711,116.10176383340088,-35.06873147704305,179952.6200403759,171244.31256552736,142829.78978744053,0,2010,1451,4
-639.3601980124614,113.7223308119275,-29.34993906217511,179164.52587835406,169347.5637644883,151717.76268176647,0,2010,1451,4
-614.1415481464385,111.63125440616983,-23.65831156983157,178403.67084186836,167392.97035537957,160987.69148444015,0,2012,1450,4
-591.2821265936897,109.83787008452035,-18.009511902610477,177685.91349797053,165391.5433914859,170598.8859205963,0,2010,1451,4
-570.9301916340829,108.31952441116599,-12.436460964414394,177025.4209378159,163351.5497421801,180508.40040745225,0,2010,1450,4
-553.2289602084101,107.02435795326346,-6.993502708447994,176434.3962869458,161279.1893833139,190671.70629440542,0,2010,1450,4
-538.3130801452894,105.878517176419,-1.7480736251199425,175923.44403699433,159180.09833570954,201043.31418886085,0,2010,1452,4
-526.3027683956113,104.79599836764358,3.23661319674104,175501.92321231507,157061.3625381771,211577.0353183797,0,2010,1451,4
-517.2978763034096,103.69133916153409,7.923142892206549,175177.7315568583,154933.46514630647,222226.4065771796,0,2011,1450,4
-511.3743870138061,102.4919483730856,12.317631001803607,174956.59257775458,152811.26051685397,232945.10896439405,0,2007,1452,4
-508.58223962720285,101.14624894372746,16.474301509191786,174841.07855125592,150713.28418889455,243687.16915269458,0,2004,1454,4
-508.9418133555733,99.62705963254736,20.48626634036247,174829.50753154693,148659.6122278385,254407.51121643916,0,2008,1451,4
-512.4411364048204,97.9303600120614,24.470006018763463,174915.11691656543,146669.49689336924,265062.68788590503,0,2010,1451,4
-519.0376175335631,96.06920375008373,28.548767660606668,175085.89142331213,144759.66272999317,275611.52280837065,0,2008,1454,4
-528.663218289257,94.06393300563919,32.83472326468397,175324.91781830566,142943.0997888763,286015.99543514254,0,2007,1455,4
-541.2283353572745,91.93285566682798,37.41325081598882,175610.93580721715,141228.36597688711,296241.8515237565,0,2009,1451,4
-556.6228944066357,89.68731796229876,42.334657425200966,175919.05401430884,139619.72923787843,306258.48085055634,0,2010,1453,4
-574.716990525271,87.33130292635843,47.61176077892436,176221.67045659194,138118.04583991322,316038.5933456051,0,2008,1452,4
-595.3617413482997,84.86386552018897,53.219663628596855,176489.33494460848,136721.93821508338,325557.815533405,0,2008,1453,4
-618.3899656044866,82.28309133173089,59.09911088447733,176691.51726032395,135428.98266070496,334794.2368102453,0,2008,1453,4
-643.6179639250969,79.59077538973685,65.16577708004658,176797.55323822514,134236.86771085626,343728.3329986319,0,2010,1452,4
-670.8485044712542,76.79644210056672,71.32226954529432,176777.60464594915,133144.3390015088,352342.9996745461,0,2010,1451,4
-699.8744232011252,73.91899190774339,77.46868720238594,176603.30009357544,132151.6384285369,360623.3316142867,0,2010,1452,4
-730.482773538977,70.98582519659658,83.5117145520515,176248.11060524316,131260.42985476227,368556.41606081894,0,2008,1453,4
-762.4574675567778,68.03024273233274,89.37124044691157,175687.58139630518,130473.44090239902,376131.1034379552,0,2009,1452,4
-795.5801728631981,65.08636734741197,94.9822450758581,174899.43234121669,129793.93059731259,383337.69809975056,0,2008,1454,4
-829.6320817670211,62.18101801908884,100.29265487355997,173863.58649814303,129224.97225715671,390167.88640768913,0,2010,1454,4
-864.3961441208692,59.32579641967462,105.2594687543556,172562.2490409723,128768.78154622702,396614.7327277835,0,2010,1451,4
-899.6594356275974,56.512727888089415,109.84478711274953,170980.2081259046,128426.32316230504,402672.5230321059,0,2010,1451,4
-935.2173946576374,53.71277204798938,114.01246275782623,169105.45238572845,128197.11044539842,408336.69938322896,0,2007,1454,4
-970.8779512367613,50.87587958927199,117.72605162741124,166929.99090359148,128079.08549677538,413603.79797499155,0,2009,1453,4
-1006.463462984957,47.933177084718984,120.94884771230049,164450.7342904478,128068.50634832024,418471.1944494463,0,2009,1451,4
-1041.8118510657364,44.80167856234516,123.64568869588747,161670.36888245717,128159.73035916842,422936.8193804073,0,2008,1452,4
-1076.7764385795806,41.38961029832942,125.78423734837736,158598.0461057056,128344.9239827098,426998.82834424474,0,2010,1454,4
-1111.2236425685703,37.60015711757769,127.33313553047057,155249.60498300515,128613.8442454717,430655.14082839765,0,2008,1451,4
-1145.0302514948735,33.33399753039591,128.2578679485075,151647.292303492,128953.7810052739,433903.01453270105,0,2008,1453,4
-1178.0807187193654,28.4918664231967,128.51740853150528,147819.30347668962,129349.72095947503,436738.71040286776,0,2008,1452,4
-1210.2630394372363,22.97763486164089,128.06331721779478,143799.15623647906,129784.93757495213,439157.2415358477,0,2008,1454,4
-1241.461857361638,16.70190116400582,126.84264816132897,139624.65058444891,130242.11786088295,441152.32345589413,0,2009,1451,4
-1271.548036029292,9.583690334587654,124.80336745848369,135336.7316650361,130704.67219075761,442716.6343489151,0,2008,1455,4
-1300.365162337681,1.546478808177724,121.89757879738464,130978.41210170912,131157.98173643494,443842.8501784183,0,2008,1451,4
-1327.7242300465934,-7.487421509204985,118.08282219012813,126593.4895339442,131590.66798132472,444525.84927438205,0,2006,1453,4
-1353.4264845166954,-17.593821400912418,113.32499017707754,122225.37424039004,131995.71179947344,444764.7109023863,0,2005,1455,3
-1377.3045600602316,-28.83638422403946,107.6019465563709,117916.15841428624,132371.1606329737,444562.17595800094,0,2005,1452,3
-1399.2438743551734,-41.26092005030973,100.90599371066628,113705.59039687732,132720.17851953316,443921.6798848842,0,2005,1454,3
-1419.1727066203034,-54.8985417751547,93.24611673780029,109630.3994374729,133050.2062685881,442844.57727059495,0,2009,1454,3
-1437.0395400692837,-69.77314810926012,84.65154534281602,105724.51284019563,133371.30452086945,441329.1847839642,0,2010,1450,3
-1452.7955853631497,-85.90681343062651,75.17384660973818,102019.74058986068,133694.09154356687,439371.1472411339,0,2010,1452,3
-1466.389258595897,-103.3191964599174,64.88112961180518,98546.38340294763,134028.12824989372,436964.126736081,0,2004,1460,3
-1477.7668147311551,-122.02206085949871,53.84716278558781,95333.5900897228,134381.4966427335,434100.2824752489,0,2002,1455,3
-1486.872681365545,-142.01180919414531,42.14532408347845,92409.30448028949,134761.442459291,430770.5862117825,0,2004,1463,3
-1493.6535740593329,-163.2606041907128,29.848279093432094,89799.86286790276,135175.3792266502,426965.2890867705,0,2002,1461,3
-1498.0687742638372,-185.70561045985636,17.03006475954024,87529.34354121503,135631.78349690777,422674.6019376163,0,2002,1458,3
-1500.098922575481,-209.2381041544122,3.7716874555690523,85618.54174505787,136140.94396760283,417889.41559366573,0,2009,1454,3
-1499.7484487019676,-233.69431264879145,-9.83031654195996,84083.738883953,136715.44195784742,412602.0029890982,0,2009,1458,3
-1497.0456180796814,-258.84783447291943,-23.657115582776463,82935.36517049582,137370.08926117743,406806.77623008954,0,2002,1459,3
-1492.044491538261,-284.40490703151545,-37.566100908481985,82176.4298129079,138121.32865237756,400501.1594830053,0,2000,1465,3
-1484.8289122345057,-310.0074575049103,-51.39417877169395,81801.16837942415,138986.44132901516,393686.60430340626,0,1992,1469,3
-1475.5150539042077,-335.2475337970226,-64.9646349634699,81794.32131317553,139982.90689977715,386369.59623675793,0,1985,1476,3
-1464.2480809763517,-359.68751443330706,-78.09549074176952,82130.82117963205,141128.01000105942,378562.4261860016,0,1993,1469,3
-1451.195693986119,-382.8775076029374,-90.6043936242284,82775.81837161601,142438.68097739297,370283.845507076,0,1987,1469,3
-1436.5465623135199,-404.3719188404296,-102.30626609694175,83685.51404277426,143931.53017868122,361559.69256130885,0,1979,1481,3
-1420.513461233157,-423.7480799012413,-113.00514383841585,84809.04568607121,145622.85270444167,352423.25469128304,0,1968,1488,3
-1403.3346599703139,-440.6184375821555,-122.48758026166044,86090.76800599085,147528.13167906232,342915.3532594761,0,1968,1489,3
-1385.2708241747632,-454.6309162763468,-130.52684380036084,87472.52057587591,149660.3808667357,333083.8564738483,0,1958,1493,3
-1366.5991894038543,-465.46382930723394,-136.89787288516632,88896.19873380805,152027.2625879158,322982.1996868463,0,1964,1495,3
-1347.6076412686778,-472.8225103127574,-141.39287455060395,90306.17324216332,154628.25012590445,312667.72749480436,0,1960,1497,3
-1328.5866219992329,-476.44108079115944,-143.83377103101435,91650.96884024474,157453.25019339073,302200.4330046515,0,1964,1494,3
-1309.816366127224,-476.09030030318826,-144.08598213233685,92884.58404219481,160482.7726435714,291641.5856621513,0,1962,1495,3
-1291.5544514845521,-471.58862360388883,-142.07170581404037,93967.68067664532,163688.85351571586,281052.6395183078,0,1959,1498,3
-1274.0277435262535,-462.8143438666818,-137.77671345095263,94868.65689696498,167036.4583454788,270494.7854338058,0,1962,1501,3
-1257.4277147764128,-449.7198234773899,-131.25098362206967,95564.80903561889,170485.53556154302,260028.42402594746,0,1966,1492,3
-1241.9096535742458,-432.34482478242444,-122.6064974770674,96043.3237298282,173993.1877013159,249712.51913117975,0,1970,1489,3
-1227.5957747415707,-410.82426398343824,-112.0131089407026,96301.779628089,177515.427607179,239604.1719801937,0,1984,1485,3
-1214.5794273878726,-385.39024495716774,-99.69246621124913,96348.31129371272,181008.6930677532,229758.16406792417,0,1975,1483,3
-1202.9280572069547,-356.3668980465377,-85.90858330856697,96201.5180451738,184431.32384324522,220226.00224899384,0,1978,1485,3
-1192.68427374574,-324.1566894708581,-70.95381034053153,95890.06401741317,187744.97556092354,211054.30024429425,0,1974,1483,3
-1183.8653427687368,-289.2251617690542,-55.13479286080874,95452.03416687647,190915.46994326252,202283.38158300673,0,1974,1486,3
-1176.4601307541154,-252.08973711502628,-38.76354011789229,94933.78335268368,193912.52655155532,193946.81318142873,0,1990,1476,3
-1170.4222798985368,-213.31073123885193,-22.15330988358181,94387.94548075656,196708.60126091092,186071.40178411562,0,1985,1479,3
-1165.6622005112788,-173.48537842738264,-5.618480389037162,93871.04001308783,199277.55400748705,178677.52399820782,0,1974,1483,3
-1162.0416802142697,-133.24741231469045,10.522434185284972,93440.7831688696,201593.85822239053,171779.9687824217,1,1973,1486,3
-1159.3723211923552,-93.27173989623782,25.943035119928613,93152.57214025041,203632.7235801669,165388.94027890824,174,1972,1483,3
-1157.418758995398,-54.28187699090846,40.30557659773515,93055.57029948996,205370.92125669977,159510.9627768849,683,1993,1467,3
-1155.9085369733302,-17.043975093929586,53.25930529827578,93188.68346143616,206788.34412133705,154149.6117073853,1611,2012,1455,3
-1154.546637431723,17.676209571577157,64.44509250398528,93576.1678284992,207870.78274042872,149305.93967042177,2313,1997,1464,3
-1153.0285948901271,49.19577322216125,73.50876275715608,94224.48180227146,208613.65854143337,144978.5892129232,2573,2018,1450,3
-1151.0515169249618,77.03191041025511,80.13247202106118,95123.39971445456,209026.4513230023,141163.1277517697,2750,2010,1451,3
-1148.326276216979,101.03690635709077,84.09950962652661,96252.60772034901,209136.7818865201,137850.21279377144,2769,2018,1457,3
-1144.5969884734163,121.46912761168456,85.37712271855617,97590.65826856956,208990.873985798,135023.97508958794,2761,2021,1453,3
-1139.6852664412843,138.9036191444599,84.16825567051916,99120.24684832682,208648.84856736189,132662.2044719274,2800,2022,1452,3
-1133.5523520306585,154.00787217153146,80.88539026372442,100826.3981145983,208175.5952966669,130738.05216142825,2641,2026,1450,0
-1126.3288483205317,167.3293089388472,76.05131897099216,102690.19810823502,207628.67512072984,129222.40555604557,2569,2030,1454,0
-1118.28579052044,179.1975408077821,70.19677624148085,104683.87646649046,207048.30426451383,128086.30144513902,2468,2028,1452,0
-1109.7655457611743,189.73421092810335,63.80200390505923,106770.80025629683,206454.64123761313,127302.74566334944,2435,2034,1451,0
-1101.1019165266027,198.92111104926792,57.26899686259662,108909.85826451107,205851.70547727728,126847.61646606946,2396,2041,1451,0
-1092.5665998723532,206.67215957143634,50.912173424442734,111061.12533477624,205233.56272680216,126699.4781083547,2398,2038,1452,0
-1084.3595009114729,212.88101642532504,44.96788052289484,113190.21162651358,204590.04352886725,126838.21707967522,2430,2028,1451,0
-1076.6221063520197,217.45614240387044,39.61532914724275,115270.78830320897,203911.63729967465,127242.93960374035,2432,2030,1449,0
-1069.4489599161982,220.3519300556614,34.99521184188007,117285.19087831384,203192.71127676268,127890.31637335241,2454,2044,1452,0
-1062.8912105584927,221.58967050595814,31.215546503338352,119223.11096125923,202431.95277870668,128754.4735111681,2431,2065,1453,0
-1056.9593884887138,221.26513736962323,28.346549785700304,121079.35867730778,201630.67296107658,129808.34928670191,2463,2028,1453,0
-1051.6310338346566,219.54177832952982,26.413540622007194,122851.90895040795,200790.76387036615,131025.40539838134,2430,2064,1453,0
-1046.861903070467,216.62837005496618,25.393067273196234,124540.59326457804,199913.66312194275,132380.83648732767,2458,2066,1452,0
-1042.597731272936,212.74570910256045,25.212199346559636,126146.16125583605,199000.4994884278,133852.28272824807,2488,2065,1454,0
-1038.7834793249083,208.0965284351056,25.751177306222594,127669.74390565828,198052.88558778973,135420.1259446966,2490,2068,1449,0
-1035.3683229517744,202.8498007251267,26.85363845153201,129113.02935565662,197073.81076441964,137067.2486603613,2494,2062,1456,0
-1032.3067027558004,197.13830232129106,28.346358316125464,130479.08433290174,196068.1497147178,138778.37254078628,2470,2077,1452,0
-1029.556142166189,191.0649305591811,30.060734022005356,131773.2118647789,195042.43311035424,140539.33328271098,2451,2080,1455,0
-1027.0734631705861,184.7145992645246,31.8481458364627,133003.2487425588,194004.07974260882,142336.62143130027,2418,2077,1453,0
-1024.8125018170797,178.16690983892389,33.58862896885004,134179.15722316914,192960.54758983004,144157.34495844456,2326,2085,1452,0
-1022.7258230331444,171.50285791663563,35.19267231440983,135312.10635637716,191918.588327521,145989.53027170728,2248,2083,1453,0
-1020.7693065386045,164.80380407654874,36.59745483746524,136413.45020770736,190883.8303046956,147822.4286275773,2111,2076,1451,0
-1018.9067352347323,158.14771163891413,37.76176958302735,137493.87296672122,189860.87646349656,149646.61094124545,2012,2102,1453,0
-1017.1131098398354,151.60694525963055,38.66117547820288,138562.65315003434,188853.70256435563,151453.94209700724,1883,2096,1449,0
-1015.3757868319635,145.24872501100387,39.283667404124316,139627.0657343055,187866.0138453465,153237.50358477372,1728,2086,1449,0
-1013.692347166299,139.13686827434483,39.626552993872025,140692.07185434535,186901.37228452342,154991.49831644603,1540,2066,1452,0
-1012.0657074242406,133.33224786938322,39.69373581940542,141760.30203822552,185963.10088714704,156711.2239099597,1513,2076,1452,0
-1010.499553533899,127.89109590939111,39.49291050201943,142832.20823249107,185054.11368843034,158393.05852146275,1315,2073,1457,0
-1008.9971492495253,122.86185005609907,39.033110994211434,143906.37563046438,184176.74131634744,160034.34474143718,1228,2085,1453,0
-1007.5630903317284,118.2818692056034,38.32255709783197,144980.0361161068,183332.5288040062,161633.15943755413,1148,2068,1453,0
-1006.2049512183111,114.17603007650976,37.367078649131656,146049.59122158663,182522.0972390517,163187.98137013844,1038,2059,1451,0
-1004.9324266835031,110.55800009136097,36.16997257128516,147111.0008194868,181745.1633417963,164697.30391038515,952,2074,1451,0
-1003.7546497115934,107.4327218617878,34.73342543478665,148160.12564486722,181000.66857542883,166159.30568266512,867,2070,1456,0
-1002.6782809478144,104.79805781424092,33.060536775628606,149192.96190325974,180286.95692256442,167571.65630571166,804,2094,1458,0
-1001.7073318663668,102.64465660469446,31.15707230634772,150205.6491295054,179601.99216466292,168931.50310717875,782,2102,1460,0
-1000.8438634553459,100.95496552388339,29.033187141140843,151194.35174293586,178943.6037503606,170235.64190930966,666,2093,1461,0
-1000.0888365658393,99.70310458684312,26.705331813609778,152155.1411673077,178309.72839489157,171480.71925986922,574,2094,1470,0
-999.4430062936016,98.85614157529254,24.19766933867208,153083.93462619037,177698.6164562397,172663.35806746426,562,2088,1469,0
-998.9079538033855,98.37582293559292,21.542397210986646,153976.52404674556,177108.97773715903,173780.28065540636,491,2094,1470,0
-998.4868804769726,98.21952237435339,18.7789021928238,154828.64887328877,176540.02842284428,174828.43906111224,444,2087,1497,0
-998.1844544298957,98.34012072151421,15.951486724991177,155636.08929238498,175991.37805782043,175805.1537644917,436,2083,1497,0
-998.0057756644746,98.68557589766507,13.105645380361896,156394.82361172143,175462.7607181012,176708.34000033227,388,2082,1499,0
-997.955208663513,99.19919717817832,10.28432810660165,157101.19892415736,174953.77421872944,177536.74113040193,392,2077,1501,0
-998.035255493246,99.8215719888726,7.525278678809389,157752.06557694127,174463.76072637088,178290.04294590236,381,2113,1505,0
-998.2453079527753,100.49417055727837,4.8589307267884925,158344.9169787195,173991.78742855834,178968.90029625242,348,2120,1504,0
-998.5807201513171,101.16279330072955,2.306866865018784,158878.00419802417,173536.6744956282,179574.90494507464,313,2123,1523,0
-999.0327774003133,101.7789319485772,-0.11848267196466286,159350.39633192102,173097.06164293864,180110.44723232472,275,2100,1544,0
-999.5895891936433,102.29904247481593,-2.412960028995429,159762.0556768545,172671.484220591,180578.44148305085,248,2035,1584,0
-1000.2372922273734,102.68319953406275,-4.578942418461983,160113.94808120935,172258.42699754448,180981.94816202827,237,2026,1592,0
-1000.9608295710908,102.89523030371177,-6.622989546810123,160408.11891500722,171856.33301550383,181323.82499332793,253,2093,1565,0
-1001.7441750030422,102.90566162073046,-8.553973287489018,160647.6264189296,171463.58001870845,181606.6414019743,272,2049,1591,0
-1002.5703939443074,102.69606878306905,-10.382424701610763,160836.2801925208,171078.51544161243,181832.97845042247,248,2083,1572,0
-1003.4220665261878,102.26140469311207,-12.11989171149506,160978.21838588404,170699.65972665627,182005.94712155178,166,2120,1574,0
-1004.2821700845303,101.60810412214968,-13.777850069153757,161077.3734284499,170326.04269389488,182129.50145917252,134,2129,1582,0
-1005.1350632584488,100.74922279393277,-15.3672362534047,161137.01383951175,169957.47735919408,182208.15460650125,116,2156,1725,0
-1005.967802819772,99.69958242850572,-16.898211653464713,161159.65982574798,169594.6268493002,182246.28693318745,55,2101,1596,0
-1006.7721445144813,98.47237869445746,-18.378830370838685,161147.4340653402,169238.81223587584,182247.56478872415,66,2084,1619,1
-1007.5463067448737,97.07761071741794,-19.813037001870807,161102.57438692602,168891.5808331069,182214.61404512843,33,2127,1611,1
-1008.2949725078638,95.52259723416064,-21.199960835444845,161027.82598924244,168554.23218603656,182148.87174529606,43,2116,1629,1
-1009.0270346376769,93.81400153779083,-22.535416038507737,160926.65739022518,168227.47834305762,182050.5803560064,56,2118,1643,1
-1009.7523018431369,91.96019872721435,-23.814563639419305,160803.3170720522,167911.24802370148,181918.89176026703,36,2078,1648,1
-1010.4788775724538,89.9731669497607,-25.034557830971355,160662.69142374233,167604.70507490836,181752.1592287246,25,2118,1647,1
-1011.2118257048223,87.86945885685766,-26.196414265356964,160509.9886028569,167306.5599468796,181548.49273085207,7,2096,1649,1
-1011.953148250755,85.66971510771968,-27.305002985200332,160350.40706852954,167015.53892088137,181306.3941641153,0,2089,1656,1
-1012.703234627455,83.39622109445483,-28.366469629964577,160188.8940952753,166730.80702350894,181025.24439563346,0,2058,1671,1
-1013.4632598172676,81.06922564772607,-29.38408820445591,160029.95616382928,166452.2403664253,180705.60536894898,14,2034,1695,1
-1014.237205718094,78.70419948708545,-30.355021202963233,159877.52484843356,166180.4768403822,180349.3270812723,12,2024,1707,1
-1015.0327689115653,76.31138149796772,-31.26974048184016,159734.93676995917,165916.68121971682,179959.39325941895,0,2018,1725,1
-1015.8612476105196,73.89703391269092,-32.11362760457247,159605.01016113197,165662.09343054224,179539.53042926826,40,2034,1734,1
-1016.7366069600318,71.46533307728663,-32.86924275462579,159490.13461371613,165417.6203133696,179093.7765626386,20,2031,1743,1
-1017.6740148944629,69.02029182809076,-33.518649284722464,159392.2857739643,165183.6810811713,178626.15356168908,0,1974,1781,1
-1018.6882874996479,66.56739108046504,-34.04574383963671,159312.93871559133,164960.276307457,178140.41838596153,0,1927,1837,1
-1019.7927629056993,64.1144376495963,-34.43783256414861,159252.9371956628,164747.15941895294,177639.91190765897,10,1911,1820,1
-1020.9988014681891,61.67135251508537,-34.685947956120934,159212.36976511872,164544.04506283306,177127.5391523486,7,1958,1795,1
-1022.3157755604115,59.249356438184066,-34.78451148197549,159190.46616804984,164350.81690771892,176605.8124848297,0,1905,1849,1
-1023.751613481368,56.86015332605614,-34.73097311850138,159185.5538760921,164167.6639374123,176076.8945406642,0,1908,1858,1
-1025.3136544407905,54.515175963969774,-34.52549599142356,159195.11051124468,163995.0923005843,175542.61812418592,1,1968,1820,1
-1027.0090899127542,52.22486491448297,-34.17060636642208,159215.8907150911,163833.85038692842,175004.4784173741,0,1866,1906,1
-1028.845003125951,49.997897887675165,-33.67067512132146,159244.11725444318,163684.82371156273,174463.60132486848,0,1874,1868,1
-1030.8287548394114,47.84023355478501,-33.03106956527299,159275.7339857673,163548.92547031993,173920.6918285007,0,1820,1951,1
-1032.9687807820565,45.75453031897606,-32.25712202074283,159306.63966347039,163427.02362029802,173375.9972441992,2,1833,1972,1
-1035.2752368239505,43.74070190994471,-31.3530747776919,159332.84512038453,163319.9211793658,172829.29744348905,0,1837,2005,1
-1037.7603427420333,41.79731465102712,-30.321027165533717,159350.59712009854,163228.34478002402,172279.8891885727,3,1806,2050,1
-1040.4385964041167,39.92282221395207,-29.160218631509053,159356.48751417483,163152.90919051215,171726.5671868104,0,1771,2085,1
-1043.327284126996,38.116008829112864,-27.86722311003341,159347.52854929783,163094.06260464928,171167.59711747942,1,1700,2140,1
-1046.447806156515,36.37557429819928,-26.43748322134887,159321.20277082673,163052.0285189586,170600.65277836952,2,1654,2188,1
-1049.8271976053388,34.699584032703534,-24.868345517615662,159275.50948347998,163026.7712435224,170022.76854893763,0,1632,2208,1
-1053.4985950750777,33.085975932741675,-23.163704526613426,159209.08374130935,163017.99950092396,169430.41241626238,0,1634,2204,1
-1057.4994784196433,31.534365439173957,-21.338194007141034,159121.47756321912,163025.1952552612,168819.7303269545,0,1449,2298,1
-1061.8666900740404,30.048707223780802,-19.416318873461588,159013.51720734022,163047.71285230276,168186.8557373173,0,1451,2331,1
-1066.6307278944296,28.640331369032495,-17.42644442294417,158887.55638117093,163085.06690220488,167528.08462453316,0,1430,2353,1
-1071.814204011099,27.329425082120007,-15.394671917556533,158747.5677648997,163137.33729604704,166839.86900215843,0,1341,2412,1
-1077.4351996328542,26.14272166480032,-13.340442558117216,158599.0343807185,163205.41445861015,166118.67964217762,1,1303,2439,1
-1083.5117353581945,25.10915979699085,-11.273382785506685,158448.61395713684,163291.00890094732,165360.75329021426,7,1223,2476,1
-1090.0637915978093,24.257765060405603,-9.192591946857451,158303.75765997407,163396.5436940164,164561.82703490544,3,1204,2517,1
-1097.1127411582036,23.618644685135212,-7.088530989637623,158172.48402120397,163524.94190521786,163716.93281057573,3,1171,2527,1
-1104.6801443253023,23.224907052065053,-4.945945850518479,158063.27020064334,163679.3190106819,162820.20169465142,0,1110,2571,1
-1112.7866784672433,23.11359828833025,-2.7464885309329086,157984.93327415374,163862.74066001788,161864.72409330477,4,1008,2617,1
-1121.450996842091,23.3247919712674,-0.4707710983520778,157946.40434679086,164078.1780352992,160842.54765268235,0,960,2642,1
-1130.6886327900784,23.899372985825725,1.8996081812952894,157956.3692614569,164328.61235945253,159744.7766235446,0,911,2667,1
-1140.5109722070106,24.8770467380849,4.380129581111584,158022.9153457189,164617.14705778583,158561.72495922525,0,912,2689,1
-1150.9239831718673,26.295274711896816,6.982012506809171,158153.3126601418,164947.0481774871,157283.10329485743,3,896,2715,1
-1161.9266201015278,28.188592482529643,9.711254575863515,158353.89358015027,165321.72342721978,155898.22780582265,0,784,2738,1
-1173.5090351990036,30.587673029198328,12.56749799929699,158629.987425226,165744.65229927574,154396.2462860645,8,735,2737,1
-1185.6505172864015,33.51807449981464,15.542748877589375,158985.92305700626,166219.26446341307,152766.34901041345,0,703,2764,1
-1198.3172139022734,36.999027451302474,18.620230759547088,159425.08474305863,166748.78769557158,150997.94375027626,9,621,2805,1
-1211.460203613673,41.04263106756611,21.773173488454937,159950.01032596407,167336.09175934797,149080.79892617834,0,547,2834,1
-1225.0140598743342,45.653708682313685,24.96347412179573,160562.53892778436,167983.54163570612,147005.17729867407,0,530,2833,1
-1238.8953815663565,50.830012120789725,28.140824846898354,161263.9597973757,168692.88085481882,144762.0466752394,2,497,2854,1
-1253.0013043970216,56.56190362552182,31.242704381584364,162055.1414882995,169465.1854147393,142343.42098334065,0,445,2860,1
-1267.2087608679492,62.83126152143436,34.19512315013054,162936.67293931183,170300.89842747187,139742.78066073198,0,396,2885,1
-1281.3762512889086,69.61014729722046,36.91459071768526,163908.94504879098,171199.87217653368,136955.50868474616,0,372,2907,1
-1295.3492229980395,76.85970668574203,39.3118967783029,164972.08079754902,172161.34700202075,133979.30239738224,2,330,2922,1
-1308.9668116663152,84.52977940391433,41.296545085492006,166125.7281415053,173183.8658823778,130814.54239158913,0,322,2923,1
-1322.0678350879575,92.56037723127626,42.78048005869148,167368.7100339726,174265.11480403895,127464.569205112,0,355,2923,1
-1334.4956984249966,100.8854292472754,43.681151825449874,168698.5155184878,175401.6637183883,123935.83724106263,6,300,2929,1
-1346.0999155010088,109.43642372143908,43.923536610909665,170110.75520208135,176588.63577244035,120238.07615195538,6,317,2926,1
-1356.732083992689,118.14320261786453,43.4409023547403,171598.7539070474,177819.4100317331,116384.53816991432,0,313,2931,1
-1366.2382883546322,126.93176265543117,42.17575460601733,173153.32855507734,179085.49043679136,112392.28218906574,0,337,2932,1
-1374.4530368964206,135.72059096117948,40.08223530257844,174762.67634895165,180376.6139273968,108282.54329928487,5,343,2916,1
-1381.1986355833053,144.4169170736809,37.13006681744738,176412.29396935148,181681.20569148028,104081.05055198446,4,359,2892,1
-1386.2891103461695,152.91380949971867,33.30901984418182,178084.88394968875,182987.19841432804,99817.96881857641,2,413,2839,1
-1389.5359041921006,161.0893686456822,28.632023507119918,179760.24686079187,184282.8503155294,95527.52856997294,4,464,2787,1
-1390.7537416926684,168.80849428564048,23.13618324849738,181415.25906316115,185557.2611127633,91247.58077910522,10,519,2735,1
-1389.7650539623392,175.92563361418365,16.882319433620275,183024.07226173577,186800.6546799377,87019.1422751889,6,614,2670,1
-1386.403806581707,182.28754786163012,9.95367475733418,184558.84458537717,188004.49626224066,82885.92935449521,8,679,2607,1
-1380.5219676749123,187.7366236855859,2.4553572737500047,185991.25863202053,189161.4751526129,78893.876561325,0,790,2503,1
-1371.9983297156043,192.11489568149076,-5.483303190824414,187294.36937167746,190265.41185052227,75090.85390539646,0,941,2382,1
-1360.7470249609091,195.271450656174,-13.704445124837743,188444.4539337596,191311.0179294557,71526.59985645112,13,1095,2251,1
-1346.724701960618,197.07637935482265,-22.020487125322045,189423.1448196888,192293.3553382152,68252.46815477672,7,1151,2201,1
-1329.9345333069239,197.43791946469923,-30.218438131421934,190219.58103553468,193206.97058276157,65320.9052111015,13,1292,2101,1
-1310.4228598431826,196.31846498662213,-38.06674704191221,190832.21045986732,194044.77496845304,62784.62136785654,6,1373,2019,1
-1288.2674401830834,193.74825505051106,-45.32243397561444,191270.30951833687,194796.86590615573,60695.26563297688,15,1531,1895,1
-1263.5641512124066,189.83234431523658,-51.73784247750024,191554.6538342085,195449.6932043054,59102.08824490742,6,1645,1787,1
-1236.4191928799285,184.74444856026022,-57.06877757811745,191716.1516739458,195985.7719757742,58051.11055702539,4,1785,1676,1
-1206.9472595214568,178.70750975186107,-61.08787051154989,191792.17631614147,196383.77032043764,57584.557957052966,0,1814,1617,1
-1175.2743833636825,171.9695133806062,-63.60121285929287,191822.09749115346,196618.83444304424,57740.3438482563,0,1850,1588,1
-1141.5442874084843,164.7806711021968,-64.46429082576151,191843.23572279277,196663.42186859722,58551.58917005475,1,1866,1577,1
-1105.926158364534,157.37194478214641,-63.597072050349716,191887.12830215856,196488.9277323925,60046.02250215902,0,1918,1530,1
-1068.6217731263969,149.93955962073062,-60.99484712492472,191976.64518345243,196067.7226132717,62245.28721727438,0,1918,1527,1
-1029.8689162499654,142.6399834805193,-56.72846940436123,192124.78303195245,195375.38244236461,65164.33279590649,0,1935,1509,1
-989.939532063774,135.59155568127193,-50.93313730069935,192334.80019234438,194393.3668454071,68810.93515870578,0,1990,1465,1
-949.1357870402699,128.87828696164812,-43.79104665128635,192600.99354149387,193111.5829706109,73185.34306638238,0,2010,1455,2
-907.7856580216051,122.55585840223138,-35.51048321177293,192909.92294330135,191529.93324401244,78280.21457478312,0,2016,1449,2
-866.2364558873518,116.66036294250894,-26.301519297869817,193242.06448906258,189658.76377077991,84080.95667558341,0,2016,1451,2
-824.848102726659,111.21697866587786,-16.355394651793922,193573.48454039346,187518.42209142426,90566.13655399864,0,2013,1453,2
-783.9864369134644,106.24524512188243,-5.833763877452294,193877.3951717744,185137.64215383102,97707.87127659736,0,2012,1452,2
-744.0141536899779,101.76065559246284,5.133902790049754,194125.9216207468,182550.61106540385,105472.5314747688,0,2012,1451,2
-705.2829720096013,97.77407372057093,16.44726300668985,194291.8717843096,179793.7936994127,113821.51397446815,0,2010,1453,2
-668.1290793833816,94.28966738888832,28.027957742211193,194350.29119169037,176903.40145929766,122711.92391363933,0,2012,1452,2
-632.867549467449,91.30048756309384,39.81023493292533,194280.03609452266,173913.22591083718,132097.4922389615,0,2012,1451,2
-599.7865980953509,88.78206652713828,51.73146097223952,194065.0444574344,170852.99142381284,141929.30940929012,0,2012,1450,2
-569.1461625923164,86.686126116287,63.72360612968585,193694.7488862091,167747.59642890483,152156.16280030896,0,2012,1450,2
-541.1803277794561,84.93607528552126,75.70504885723265,193163.7988718005,164617.01512169754,162725.11449895494,0,2012,1449,2
-516.1008384787278,83.42616868276154,87.57367832400806,192471.6779718816,161476.79131687825,173582.18352240828,0,2011,1451,2
-494.0988366516344,82.02689971274037,99.20562413848872,191622.62947515116,158339.26257644,184672.92956982765,0,2010,1451,2
-475.34330501818994,80.59726598398233,110.46377196733366,190625.98251781156,155215.3311981335,195943.35577930926,0,2010,1450,2
-459.97835852393894,78.99971653986117,121.21378804186688,189496.58435067418,152116.23313370923,207340.61797853385,0,2010,1454,2
-448.12084713616457,77.11361922463053,131.34268671196617,188254.69312728822,149054.81552024605,218813.10119277434,0,2008,1453,2
-439.8577306363412,74.84670054779528,140.77779907686934,186925.00406966612,146046.18580476742,230310.52651268354,0,2006,1454,2
-435.2442850389263,72.14266197678867,149.50085007184455,185535.25531561355,143107.6747792986,241784.17058712148,0,2010,1451,2
-434.3038986701433,68.98350560761013,157.55239216046044,184114.67418072297,140257.72208701994,253187.16065404538,0,2011,1451,2
-437.02850897180434,65.38771895089731,165.02772361222515,182692.0996738549,137513.55271698922,264475.32546498947,0,2011,1451,2
-443.3792064152692,61.40289043303188,172.062529369376,181294.2662960996,134888.73697219402,275608.07769468735,0,2010,1449,2
-453.2863913682521,57.091909038065566,178.80801142984004,179944.84337982957,132391.7146866439,286548.58986549015,0,2010,1449,2
-466.64898351149014,52.51915193132866,185.4065804864946,178664.04978616815,130025.22355111499,297263.5207840256,0,2010,1453,2
-483.33438560824646,47.7431141790495,191.97700842306173,177468.48559902824,127786.55511276965,307722.76357104484,0,2010,1451,2
-503.1804816956963,42.814918681185475,198.6062147897489,176370.96258591945,125668.6989750013,317899.4000366922,0,2010,1453,2
-525.9980512382252,37.779681786459115,205.34469069867174,175380.2544768487,123661.882932495,327769.5506408926,0,2010,1451,2
-551.5732588623108,32.678434250509895,212.2076839923485,174500.86184410958,121755.05894224592,337312.0377317755,0,2009,1453,2
-579.6716522248003,27.54883392048696,219.18241587826617,173732.86749613003,119937.28887081145,346508.31374929775,0,2010,1451,2
-610.042535299893,22.424888866546326,226.236947316493,173071.93623140772,118198.8438619959,355342.47316125943,0,2008,1452,2
-642.4235526375841,17.33751699506477,233.32736348971193,172509.46130438847,116531.72853523366,363801.096511383,0,2009,1451,2
-676.5471710618801,12.31655061876578,240.4031619410643,172032.76247511234,114929.67817535246,371873.22915754,0,2009,1452,2
-712.1464636089149,7.392586047997295,247.41007674102715,171625.2943174304,113387.93053075566,379550.32653962687,0,2009,1452,2
-748.9581371841825,2.5962886609650426,254.29008145074002,171266.96983949334,111902.94348562488,386825.983275628,0,2008,1451,2
-786.72516341967,-2.045616107125822,260.98040318914116,170934.67769438232,110472.07699310564,393695.7773416528,0,2008,1450,2
-825.1990420712464,-6.515463077016522,267.4124974554337,170602.86605851192,109093.38925124567,400157.14659834583,0,2010,1452,2
-864.1412430483607,-10.809170531627643,273.5104349924461,170244.15633720814,107765.65662875224,406209.13371830457,0,2009,1450,2
-903.3255401853213,-14.94095947056272,279.18858167193054,169830.14177582285,106488.48916855593,411852.2353203262,0,2010,1451,2
-942.5403504801333,-18.947854272893906,284.34948486881177,169332.35123894646,105262.43136590555,417088.2615522735,0,2008,1451,2
-981.5906718365817,-22.89218071823169,288.8834441181136,168723.4464976004,104088.98173166352,421920.0108565757,0,2008,1455,2
-1020.3007621880722,-26.861597996986255,292.6707374788697,167978.84171902802,102970.45953345389,426350.89076181175,0,2006,1453,2
-1058.5148972341203,-30.966731680622264,295.58552281052596,167078.3848705602,101909.77723211567,430384.45229298814,0,2009,1453,2
-1096.0940889833767,-35.33586702106322,297.49976576541417,166007.65984193634,100910.12498200263,434023.7337958587,0,2007,1453,2
-1132.9108336926183,-40.10730865877529,298.2865516626398,164758.96359889873,99974.49444708435,437270.5594475703,0,2007,1452,2
-1168.8436063453564,-45.42217804227728,297.8222460433371,163331.94258220214,99105.2359396761,440124.9366491109,0,2008,1454,2
-1203.772200561357,-51.419065543180466,295.9876647346094,161733.66387451562,98303.94135160865,442584.63256540446,0,2009,1452,2
-1237.5750650067246,-58.22959726955396,292.6693641570909,159978.13974485084,97571.68639089496,444644.9804745134,0,2005,1454,2
-1270.127926031759,-65.9748472044615,287.7616127622642,158085.64473624222,96909.51159182515,446298.83559194196,0,2008,1452,2
-1301.3038967561415,-74.762981868718,281.16985754336247,156081.9406459403,96319.09141306429,447536.6954043519,0,2008,1452,2
-1330.9763977850498,-84.6875495562369,272.81649775166187,153997.25167878807,95803.54051151952,448347.08934063214,0,2008,1454,2
-1359.0223460448883,-95.82584227344235,262.6478073632211,151865.20389170977,95368.10493029514,448717.0533011596,0,2005,1455,3
-1385.322532637449,-108.23719003386984,250.6405495645417,149721.83385823923,95020.49054267381,448632.47474984353,0,2008,1452,3
-1409.760246864645,-121.96106403577288,236.80769162454493,147604.3907718545,94770.85569337104,448078.379986964,0,2008,1452,3
-1432.2198321409364,-137.01498960488823,221.20204642843075,145550.16266607915,94631.61070325084,447039.22867220733,0,2005,1455,3
-1452.5868723701249,-153.39326472491163,203.91647199283724,143595.60560253737,94617.0258449315,445499.2032978816,0,2007,1454,3
-1470.7515730889722,-171.0676318539293,185.08076488971867,141775.54559555082,94742.60651023863,443442.52104747045,0,2008,1457,3
-1486.6131526051229,-189.98883318561738,164.8575574261929,140122.47136080402,95024.41223843233,440853.7653297228,0,2008,1454,3
-1500.0829233848792,-210.0869801970698,143.43827559556533,138665.99857974672,95478.47424770257,437718.2044953973,2,2008,1456,3
-1511.0871157765164,-231.27001168856992,121.03806579367892,137432.2885961835,96120.25681871691,434022.11973368074,0,2006,1456,3
-1519.569824222748,-253.42008141446576,97.89116261506639,136443.49236161975,96964.19900828671,429753.24483061855,0,2013,1450,3
-1525.4959174121548,-276.3880694473387,74.24821846480653,135717.38257880247,98023.40602958907,424901.34575556876,0,2005,1457,3
-1528.8546871135686,-299.9874479701608,50.3740323252501,135267.03579902035,99309.3904484034,419458.8362916421,0,2004,1459,3
-1529.6630513506436,-323.9895555893714,26.54551713252899,135100.53067243198,100831.76461585911,413421.39036219247,0,2001,1459,3
-1527.966386084165,-348.12287761895016,3.049942972773704,135220.7675653937,102597.86320249131,406788.47643852554,0,2010,1456,3
-1523.837436860218,-372.07668930120707,-19.818236288701556,135625.3914341304,104612.28583620327,399563.71296669845,0,2010,1453,3
-1517.3750144062913,-395.50450108508073,-41.76152541755922,136306.77846479818,106876.39085338564,391755.2253109511,0,2010,1455,3
-1508.702887129292,-418.0229543134014,-62.484869797557245,137252.10434925006,109387.7950040147,383376.0458518653,0,2002,1467,3
-1497.9678989648635,-439.2074732939866,-81.7045616251852,138443.4688867863,112139.8955272617,374444.366626935,0,1998,1464,3
-1485.3381430610925,-458.5898970898054,-99.15820944188762,139857.95664221633,115121.46552261892,364983.906858863,0,1996,1470,3
-1471.002927173004,-475.6657594836426,-114.61384937321779,141467.58899882648,118316.60871670324,355024.575097022,0,1994,1471,3
-1455.172754406582,-489.9142484535424,-127.87995350044929,143239.28051584554,121705.32296563237,344603.10408847075,0,1994,1467,3
-1438.0761996670512,-500.8211113509805,-138.81392070060696,145134.8795935003,125264.42961683647,333763.67182460096,0,1997,1470,3
-1419.9529810748322,-507.89772038362173,-147.32380205439688,147111.45444288114,128968.90853901788,322558.4921537923,0,1996,1468,3
-1401.0464446522287,-510.7029395553677,-153.3616713088579,149122.0208758503,132794.0515154842,311048.0308699032,0,1994,1470,3
-1381.600739916784,-508.86922073578654,-156.9098790518433,151116.4893375274,136717.8653462803,299301.08488723735,0,1993,1468,3
-1361.861817929209,-502.12563071943066,-157.96239786693764,153042.62418792964,140722.80707596455,287394.59701278957,0,2000,1467,3
-1342.0761482957403,-490.31241009755126,-156.50834617252846,154847.11298420306,144796.53515056788,275412.4170590389,0,1994,1467,3
-1322.4864733731056,-473.3848043991811,-152.5276807880057,156476.68446551103,148931.1458369712,263443.4068868331,0,1999,1470,3
-1303.3277469219054,-451.4099899406818,-146.00200624337117,157879.6469286067,153120.25083202033,251579.1415238602,0,1997,1469,3
-1284.8230449998293,-424.5638381527047,-136.93522933910526,159008.3378161372,157354.49874579348,239910.60774994778,0,1994,1467,3
-1267.1788904854593,-393.1300211699693,-125.37537227325242,159821.68114715643,161617.60087144483,228525.00964472443,0,1981,1476,3
-1250.5796628158946,-357.4983821724963,-111.43313671389426,160286.97665449372,165884.44715668575,217503.6686549559,0,1987,1471,3
-1235.1794562015816,-318.1582928653112,-95.29841140697461,160381.19330188088,170121.12960822808,206920.15889278898,0,1988,1476,3
-1221.0935967768578,-275.6892179341366,-77.25234166012109,160091.95634262657,174285.963638265,196838.797010398,0,1988,1471,3
-1208.3935216677323,-230.75201064576456,-57.67009927832798,159418.0584168339,178331.50556386163,187314.01107356526,0,1986,1479,3
-1197.1049288857992,-184.08053527006336,-37.01454679431337,158369.5893213262,182207.9634068453,178390.00238790645,0,2003,1466,3
-1187.2079245307762,-136.47571136019693,-15.8252546336715,156967.79013602113,185866.9778877551,170100.70058372774,0,1996,1466,3
-1178.6377293315145,-88.80355030890203,5.294402015509255,155244.39110510357,189264.93321319987,162470.3279035944,19,2002,1462,3
-1171.2853462788296,-41.99337146760916,25.694818135968955,153240.23506529853,192366.305510489,155514.17225741388,181,1997,1470,3
-1165.0004254597445,2.9714174758296026,44.71250657705908,151003.48711964185,195146.68821416312,149239.3060667684,503,1985,1475,3
-1159.5983706280313,45.086037980089856,61.72644422545576,148587.2830390021,197594.91480009447,143645.1699937614,1184,1984,1474,3
-1154.870326666834,83.39208885964605,76.22724039568529,146046.41229550456,199714.61300984042,138723.89372055721,1818,2008,1458,3
-1150.5927529556593,117.0687522896863,87.87100567754152,143434.23571075097,201524.95991712454,134460.50381713922,2259,2016,1449,3
-1146.5351537407325,145.53857648100333,96.50098244372141,140801.7703083472,203059.58787629424,130832.93996959944,2383,2016,1452,3
-1142.4660794997,168.57857479600517,102.14281848553328,138199.46581539707,204362.93290478113,127811.63817363685,2444,2016,1453,3
-1138.1609822986677,186.379763009102,104.98960949379773,135680.38163359987,205484.59832016003,125359.38338678188,2440,2019,1455,3
-1133.4244910789457,199.4855884842692,105.38157950039161,133302.02965792123,206472.36475471428,123432.71436750246,2478,2014,1451,3
-1128.131838169453,208.62406355591492,103.77001164924937,131124.51759727456,207364.48933286133,121984.84188048622,2476,2016,1454,3
-1122.2676262279426,214.53629300869184,100.66454365412295,129205.40964901856,208183.80707904938,120968.53994310359,2429,2014,1450,3
-1115.932519330074,217.87246556933974,96.57324196526757,127593.18840497133,208935.55140271178,120338.24177767323,2320,2018,1454,0
-1109.310417403143,219.14556305328222,91.94359852722184,126320.76915814365,209608.10511768982,120051.85876000898,2126,2014,1455,0
-1102.6176898059437,218.7232545372679,87.12160395601312,125401.45924554701,210175.73660939277,120072.31599877364,2100,2012,1455,0
-1096.0601111003768,216.85342193545821,82.34088108607672,124829.738709965,210604.364454994,120368.10610090611,2156,2020,1453,0
-1089.8048203413978,213.71161524317867,77.7376826263325,124586.43625183756,210860.96664543828,120912.43466494879,2118,2026,1452,0
-1083.9675707217089,209.4492272057626,73.3834948121515,124645.15446196788,210923.1024165281,121681.22041646866,2084,2020,1452,0
-1078.6126647584424,204.22423152205033,69.3208229401515,124976.64791085137,210783.95712190474,122651.13271676084,2128,2020,1455,0
-1073.7582808859709,198.2107807196698,65.58877903329156,125550.53003287449,210451.81093261598,123798.94092365105,2251,2024,1454,0
-1069.3848075441942,191.59350589741533,62.23567521573995,126335.76601221734,209945.6103188822,125102.2858695104,2297,2030,1453,0
-1065.445724804941,184.55558506215954,59.31831854864074,127301.02125862289,209289.54962440804,126540.86997200697,2364,2030,1453,0
-1061.8791757256631,177.26819937331248,56.888037216082616,128415.30153715303,208508.5035144481,128097.06767011846,2433,2027,1452,0
-1058.619807759391,169.88263776377104,54.96923751388313,129649.07814917013,207624.24676687713,129755.77237500848,2479,2036,1454,0
-1055.608928257154,162.52493379196855,53.54278594781398,130975.48928585398,206652.9854586606,131503.80213302514,2502,2041,1454,0
-1052.799827551354,155.29483696500753,52.5441196562819,132371.11251322017,205605.1999915571,133329.11467233105,2521,2042,1453,0
-1050.156554649507,148.26931923239687,51.87461684612262,133816.2648744128,204487.44674379885,135219.98467946626,2533,2033,1452,0
-1047.648083457677,141.50802453125826,51.417216757196755,135294.83655806395,203304.73413123033,137164.40674621187,2534,2043,1454,0
-1045.2440226675876,135.0573644034061,51.051114303104136,136793.5904227929,202062.41575702126,139150.07772666877,2565,2030,1455,0
-1042.9152901951381,128.95241645233082,50.665954509903514,138301.0902134077,200767.4351246108,141164.9784146366,2554,2032,1454,0
-1040.6371346808933,123.21795423374631,50.17310121785514,139806.70651332644,199428.92624315678,143198.03445750749,2522,2030,1453,0
-1038.3908016533223,117.86944436094024,49.51037449649435,141300.121398556,198057.9633720815,145239.42041295776,2483,2040,1453,0
-1036.1629257486504,112.91411251074912,48.64173447605273,142771.381193117,196666.57277183371,147280.5444164705,2399,2047,1454,0
-1033.944353267159,108.35178038065608,47.55492372158802,144211.2188638717,195266.64047013625,149313.81915748806,2292,2056,1454,0
-1031.729950991244,104.17531131105741,46.25738403179159,145611.4056666258,193869.16903683328,151332.2779790089,2195,2058,1454,0
-1029.5190283997035,100.37184265282298,44.77010265335565,146965.04661137908,192483.8036156122,153329.21391811085,1995,2060,1457,0
-1027.3152497924302,96.92589065480477,43.121421858082535,148266.67297142863,191118.61390220374,155297.98845801587,1891,2052,1460,0
-1025.1257553478006,93.82315220426015,41.34257518478313,149512.04802568443,189780.2129478853,157231.97889068426,1730,2054,1456,0
-1022.9602802775714,91.05266353768324,39.463967474246495,150697.82214443356,188474.05615503516,159124.63431073376,1563,2052,1452,0
-1020.8311809862194,88.60619421441997,37.51164352283827,151821.19559860905,187204.73321273044,160969.65079684043,1435,2072,1450,0
-1018.754044849477,86.47537409954118,35.50511730993046,152879.6913225192,185976.18314886373,162761.11466937757,1293,2066,1455,0
-1016.7475287744106,84.64802803868862,33.457346308470136,153871.13666472034,184791.7842084084,164493.5179132917,1215,2080,1453,0
-1014.8319011116248,83.10617030130813,31.376204107221643,154793.85392326346,183654.31093045912,166161.7543311331,1089,2088,1466,0
-1013.0273139079329,81.82686647938152,29.26601596157414,155646.88320941504,182565.8574811922,167761.1126271031,1011,2072,1463,0
-1011.3526179734196,80.7844806024031,27.12847266544396,156430.1122008853,181527.77768935793,169287.24922943156,887,2071,1470,0
-1009.8243685013275,79.95273242931093,24.96349737738203,157144.347662982,180540.5996538516,170736.21704668654,791,2082,1469,0
-1008.4558700482486,79.30602130553439,22.770479954742193,157791.3125553562,179603.97698756075,172104.51922335077,781,2053,1480,0
-1007.2565921153729,78.81992836087433,20.549517220846667,158373.49567093232,178716.7782399887,173389.14679169777,739,2059,1481,0
-1006.2320596426355,78.47118361307561,18.302525289183787,158893.87594487355,177877.29393331538,174587.66164996024,676,2057,1485,0
-1005.3843101108158,78.23733079659324,16.034317516447192,159355.62286154454,177083.49375885905,175698.2927301063,548,2071,1501,0
-1004.7130097308802,78.09594767562767,13.753446747803538,159761.84337353898,176333.30032215777,176720.0102701114,523,2060,1503,0
-1004.2167328314509,78.02327947381592,11.4726902467308,160115.3915356942,175624.84798027092,177652.63713192867,444,2082,1489,0
-1003.893587748541,77.99275892812405,9.209121875958376,160418.75751886223,174956.6650844865,178496.95588631087,413,2082,1499,0
-1003.7409752577851,77.97411435755966,6.983260064378381,160674.05932724418,174327.70218767878,179254.75285341163,376,2092,1496,0
-1003.754868214316,77.93329911838903,4.817020246341178,160883.1329517043,173737.1952831183,179928.84392181662,349,2071,1507,0
-1003.929054817811,77.83323555016905,2.7313243900968414,161047.66962368312,173184.4725913206,180523.07687421885,311,2055,1523,0
-1004.2545204823298,77.63559482376469,0.7439120598366973,161169.37186243912,172668.7753764207,181042.26297468957,289,2050,1553,0
-1004.718942932939,77.30354011840235,-1.133012695005114,161250.14199339857,172189.06763961745,181492.05688094787,277,2034,1567,0
-1005.3063694510154,76.80438344071433,-2.894766675656176,161292.26552243734,171743.88851583062,181878.819956309,251,2037,1593,0
-1005.9972931403241,76.11136044866082,-4.544616019532493,161298.55430582195,171331.32960900568,182209.45739084465,191,2052,1571,0
-1006.7693592082463,75.20479783960349,-6.092501531422034,161272.4625991185,170949.1141534889,182491.21210998346,175,2064,1577,0
-1007.5985313288852,74.07283955896617,-7.55305096354402,161218.1411254225,170594.72101006095,182731.4399984531,197,2076,1584,0
-1008.4605085533658,72.71142805589375,-8.943773282691417,161140.36186854503,170265.51344742093,182937.3644034968,176,2055,1606,0
-1009.3326655117676,71.12347619054884,-10.283378435081955,161044.32912306426,169958.83362208714,183115.77484603398,124,2076,1589,0
-1010.1961460574005,69.31768592185841,-11.590219038481532,160935.48497343235,169672.03752728036,183272.69703364174,51,2088,1590,0
-1011.0370841470606,67.30754877359783,-12.880850160858012,160819.37393398045,169402.4606948416,183413.02835194714,75,2068,1622,0
-1011.8467550547234,65.11086100648023,-14.167605643352127,160701.54804777622,169147.32974550905,183540.1061893614,22,2039,1649,0
-1012.6209410075915,62.75042002744081,-15.456044473553364,160587.41850569978,168903.69695696645,183655.41609213932,29,2100,1611,0
-1013.3584864064924,60.2562328341677,-16.74598653301587,160481.85016839427,168668.51490756325,183758.81764794642,30,2107,1623,0
-1014.0595122471865,57.6675311776204,-18.03610964259714,160388.51474355286,168438.8996120643,183849.31775666552,10,2035,1662,0
-1014.7243879467102,55.031614800360494,-19.32739509322811,160309.4221970051,168212.4663171595,183925.87301012583,44,2034,1677,0
-1015.3538488930438,52.39805524652522,-20.623105559140708,160244.95481406106,167987.5553589595,183987.7215833277,39,2047,1690,0
-1015.9497241310893,49.81049981295101,-21.927008770685205,160194.29288376778,167763.29235547903,184034.25773055054,1,2002,1726,0
-1016.5159526523229,47.30020260229128,-23.241640347373956,160155.93180042438,167539.52451710706,184064.7452052546,17,1973,1769,0
-1017.0599145622681,44.88296083197012,-24.56660517015985,160128.15858247783,167316.6538723574,184078.0463839555,28,1936,1827,1
-1017.593326446077,42.55919567225321,-25.896890156980895,160109.49205610066,167095.3890265617,184072.3724349271,11,1923,1831,1
-1018.1311864813034,40.31753568037096,-27.222487283005552,160099.01392811662,166876.44631883063,184045.0955935211,0,1935,1831,1
-1018.6885794778187,38.14140702354581,-28.5299437793398,160096.51299502907,166660.25834536023,183992.71670854522,0,1896,1867,1
-1019.2774274061346,36.01568699671295,-29.804583073918014,160102.43656475717,166446.84577019158,183910.9916515871,0,1930,1876,1
-1019.9053378995881,33.93078635808406,-31.031953280966984,160117.64894071178,166236.0065403631,183795.22154228247,0,1919,1911,1
-1020.5766553991107,31.88416328459479,-32.197863633246136,160143.0526700997,166027.77093934195,183640.71023790629,0,1875,1951,1
-1021.2944012349803,29.880234730628914,-33.2871324351713,160179.2347339009,165822.84270375886,183443.23425581204,1,1847,1973,1
-1022.0621643904306,27.929288176177955,-34.28197343994184,160226.23122137715,165622.74991446658,183199.4010059808,2,1852,2002,1
-1022.885674349805,26.045955204947834,-35.16102812906527,160283.36401469258,165429.6694160269,182906.93626841193,6,1839,1999,1
-1023.7736936347271,24.24772681810135,-35.899569915618876,160349.13708330275,165246.09620284816,182564.88731352863,4,1755,2055,1
-1024.7381483811546,22.553119274495305,-36.471152571982174,160421.23494231128,165074.48951473343,182173.6249913812,0,1691,2128,1
-1025.7939903995702,20.978991574157806,-36.850279605644474,160496.61514796747,164916.92325882195,181734.61006581635,0,1686,2157,1
-1026.9590425387935,19.53806850936875,-37.01488171012627,160571.62832590958,164774.84119607523,181250.04858993154,0,1651,2176,1
-1028.2536501313532,18.237830639732202,-36.9481255412132,160642.1289264754,164649.03804512063,180722.530253841,0,1585,2234,1
-1029.7002820013367,17.080420512552188,-36.6399198113154,160703.60277906075,164539.8308535356,180154.65141293468,0,1545,2255,1
-1031.323799638169,16.062961104022133,-36.08830956967627,160751.32961633187,164447.27872916035,179548.71761384755,0,1518,2288,1
-1033.1526708297474,15.178232438663752,-35.301041815671525,160780.59040703418,164371.35311210318,178906.59931351236,0,1456,2339,1
-1035.2197032371241,14.415613219125753,-34.29664671452798,160786.94111622128,164312.03511523473,178229.67027011918,0,1454,2349,1
-1037.5602033027583,13.762543272267004,-33.102676460955685,160766.58550877724,164269.3420708449,177518.75586651714,0,1478,2358,1
-1040.2080356079464,13.20724523599593,-31.750495577971236,160716.82494884788,164243.34514775948,176774.07115691074,0,1431,2394,1
-1043.1926947990153,12.741717219437916,-30.269709792591076,160636.40415950064,164234.23589358386,175995.19599189868,0,1364,2448,1
-1046.5392172135423,12.362388099024768,-28.684744194741434,160525.57402576288,164242.4002189797,175181.15349954783,3,1337,2473,1
-1050.2697210339443,12.06818273404745,-27.01301582168818,160385.9082507445,164268.47423189608,174330.57540373763,0,1325,2472,1
-1054.4047353693518,11.858447964807599,-25.263771902501507,160220.0537571627,164313.4094512839,173441.89788994758,10,1237,2507,1
-1058.9643267731342,11.732332944299788,-23.437523219369364,160031.5150229962,164378.53483356495,172513.51866281626,0,1198,2536,1
-1063.969500623899,11.689342874663907,-21.526271476444254,159824.44086915976,164465.5652790398,171543.82695608196,2,1164,2588,1
-1069.4430161291832,11.730396902228813,-19.515052650380532,159603.42516728688,164576.51862040602,170531.10336756817,4,1058,2602,1
-1075.4089276087304,11.859309839537564,-17.38537352793745,159373.3838958391,164713.53674550986,169473.3519790313,0,1104,2635,1
-1081.8912354655936,12.084630421871399,-15.119848123974624,159139.51553920322,164878.66571777442,168368.12954045308,6,1032,2661,1
-1088.9122442693663,12.42092474226254,-12.70578836423873,158907.32007196973,165073.71208060774,167212.47921010436,0,891,2724,1
-1096.4910647701706,12.888686266086824,-10.136574282769688,158682.6336843828,165300.2452468377,166003.0015105337,2,824,2775,1
-1104.6424828117392,13.513244161553208,-7.411582773124997,158471.63708838038,165559.6954502121,164735.96824985222,7,830,2784,1
-1113.3764990810403,14.323375204616676,-4.535171652188946,158280.812765477,165853.47846262174,163407.37488606153,0,813,2780,1
-1122.6986302883154,15.349908503932554,-1.5148799274305158,158116.84540594736,166183.1120706275,162012.89580741953,4,748,2827,1
-1132.610099423285,16.624598166385724,1.6401658067729668,157986.51123147496,166550.2600440359,160547.83878988685,0,682,2847,1
-1143.107150804674,18.179310969923957,4.919903981877771,157896.59035154665,166956.64797681663,159007.18955305414,7,637,2859,1
-1154.1798244190165,20.0451876444629,8.313238985341156,157853.782183388,167403.8893291476,157385.71670418826,1,575,2895,1
-1165.8104850068794,22.251623763677483,11.807406772113268,157864.62486177808,167893.31926168944,155678.11959168318,1,538,2929,1
-1177.9718806019525,24.82507707392201,15.386914701115128,157935.4357672846,168425.90572271004,153879.1929828608,0,480,2952,1
-1190.6248951569667,27.787668316771285,19.03229941716434,158072.27084171513,169002.2347002427,151983.94268002556,9,399,2982,1
-1203.7167510278623,31.155610189981296,22.71898736490487,158280.90715209555,169622.51861502073,149987.68201376294,2,318,3029,1
-1217.1800447340236,34.93764730025974,26.41655674820744,158566.85206668006,170286.5986503773,147886.17122564817,0,327,3036,1
-1230.9320249705022,39.13383848675864,30.08844643984081,158935.367282091,170993.94635508838,145675.77730139348,0,279,3052,1
-1244.8737525405427,43.73478687168252,33.69202467720352,159391.52483328624,171743.67607954235,143353.57052381957,0,222,3047,1
-1258.8894947081221,48.72103657283778,37.17917262929099,159940.3237268486,172534.56110113554,140917.32287628358,0,192,3067,1
-1272.8464287774814,54.06254444385086,40.49732496712933,160586.81570857854,173365.00461566448,138365.53218190436,0,165,3055,1
-1286.5957774864978,59.719087858523565,43.59116505654974,161336.15095200285,174232.9360870443,135697.55402255873,6,148,3082,1
-1299.9770244159467,65.64251188546382,46.405641832886,162193.50531035982,175135.66122117938,132913.78269353948,0,118,3078,1
-1312.8239422548995,71.77994066068878,48.88942292858347,163163.84448753885,176069.6972027724,130015.89487394651,0,103,3074,1
-1324.970392614662,78.07653047903565,50.997014953857615,164251.46669302732,177030.61273297685,127007.1240670615,0,71,3089,1
-1336.2552897813223,84.4776417616125,52.68916007714399,165459.34924644386,178012.88135555683,123892.43236497787,0,91,3092,1
-1346.5252774623657,90.93105723368605,53.9313579588752,166788.35073273213,179009.7650075864,120678.651881426,8,91,3093,1
-1355.6337604571604,97.3895523015514,54.690521605838015,168236.34896196838,180013.25920623814,117374.77045739596,2,67,3103,1
-1363.4370337349233,103.81252996184006,54.93175622678049,169797.56600369222,181014.1162879061,113992.36039989308,0,91,3084,1
-1369.7898701397041,110.16460158977377,54.617972772683416,171462.3202425662,182002.06932655757,110546.03937637404,1,107,3075,1
-1374.5432352906369,116.41116261630981,53.712852398018484,173217.13809581843,182966.38380664107,107053.87074593983,0,102,3071,1
-1377.5451249211135,122.51338087704173,52.18542911018435,175044.94634602935,183896.5514995211,103537.66945606534,0,147,3038,1
-1378.6440076074039,128.42437271631988,50.014811896296116,176925.2781394809,184782.9333662042,100023.03741445369,8,207,3001,1
-1377.6941553836184,134.08653541175642,47.19398146385182,178834.63803066232,185617.35930443273,96538.93646373674,0,249,2957,1
-1374.5611269953686,139.42993914814082,43.731581285483465,180747.01871722608,186393.49744299028,93117.07813662704,0,305,2920,1
-1369.1258547083955,144.3720721864106,39.65240040338148,182634.77870741437,187106.73627704385,89791.39977983512,0,380,2873,1
-1361.2882867609296,148.81849906280044,34.998299837374155,184470.19584601984,187753.66139126508,86597.54325253448,0,451,2799,1
-1350.9728328792567,152.66552041213458,29.830367043244735,186227.23671960592,188331.4190436676,83572.49231195566,7,536,2721,1
-1338.136155812092,155.8083083029769,24.231767116077194,187882.96179072472,188837.13068219816,80754.54219503603,12,595,2697,1
-1322.7741380435664,158.1545250381786,18.30918891678444,189418.66517104337,189267.34053991432,78183.3446596409,0,748,2557,1
-1304.9230387277835,159.6403673182375,12.190418262139147,190821.0440901434,189617.43584431638,75899.59154684076,0,800,2507,1
-1284.6535831890544,160.24620231524767,6.018738504316865,192083.45700381434,189881.05005528737,73944.17519959726,0,885,2459,1
-1262.0624894020739,160.00583687679023,-0.05228045333282266,193206.7721542245,190049.62471490653,72357.27324655661,0,992,2356,1
-1237.2653531007575,159.00322471426924,-5.863193053598328,194198.99773608288,190112.32693619552,71177.76608009581,0,1152,2198,1
-1210.3913535067027,157.35787648832178,-11.254476686362235,195073.56232607612,190056.29370234645,70442.83767654756,0,1290,2083,1
-1181.5807461502006,155.207189611367,-16.073202642433756,195847.00573291903,189867.04503707073,70187.62004931505,0,1409,1987,1
-1150.984338914179,152.69045335634226,-20.179983668271127,196536.5912057167,189529.13198565994,70444.83873489706,0,1543,1877,1
-1118.76239109944,149.93304232970678,-23.456377395766626,197157.84295614695,189027.16534925243,71244.37382968944,0,1613,1804,1
-1085.0848444967899,147.03293892203783,-25.81029804492251,197722.55326502825,188346.98544382353,72612.84255078642,0,1639,1777,1
-1050.1366005811694,144.05407087254414,-27.177814541917094,198237.86470541064,187476.7021624987,74573.28619213226,0,1663,1761,1
-1014.1271241048855,141.02641689862753,-27.522840584040413,198706.21821953874,186407.60638854397,77144.81710152268,0,1727,1698,1
-977.2996736467525,137.9508719659894,-26.83608250423964,199125.72651288848,185134.80717058532,80342.09899584384,0,1759,1660,1
-939.9342897502293,134.8080084643523,-25.133051966837904,199490.86980235373,183657.35091931061,84174.7006476411,0,1778,1656,1
-902.3426809283576,131.56936664576983,-22.45057004050424,199793.50555991213,181977.8749475827,88646.45877877697,0,1828,1611,2
-864.8601424034515,128.20751542321037,-18.842763754002007,200023.8672093178,180102.14022671396,93754.95778229904,0,1873,1569,2
-827.837253029976,124.70309463868425,-14.377886414725156,200171.32007089895,178038.64338702548,99491.30189857224,0,1906,1535,2
-791.6288831287969,121.05081186760646,-9.135441716121202,200225.0506550034,175798.23366176002,105840.30949541018,0,1941,1511,2
-756.5831034058353,117.26491937196866,-3.2032626377142446,200174.75173803154,173393.8007087929,112780.8507105418,0,1955,1498,2
-723.0322896971134,113.38320785783274,3.3256991644687726,200011.31598639739,170840.0685311341,120286.26351696497,0,1970,1488,2
-691.2826416318279,109.46931274587351,10.358070036532645,199727.65995850618,168153.31916316441,128325.10452265563,0,2014,1455,2
-661.6033169430499,105.61278911797352,17.805747760935127,199319.49410200724,165351.09077791186,136861.8654892794,0,2011,1451,2
-634.2197891988549,101.9254289270357,25.591620470690888,198785.67376845717,162451.90555750456,145857.4865055007,0,2012,1451,2
-609.3120146065445,98.53333312352011,33.65530252763222,198127.99904264553,159474.91348807942,155270.07913728978,0,2011,1450,2
-587.0176543126933,95.5646888273816,41.953548314644046,197350.56603990315,156439.5128243246,165055.5178446104,0,2018,1452,2
-567.4410362262875,93.12820557544497,50.446869231553876,196458.8221321031,153364.74498898938,175167.71298391468,0,2018,1451,2
-550.6666746035006,91.28160983878865,59.07759905766371,195458.63568989988,150268.12056743848,185559.2029414121,0,2010,1451,2
-536.770830718827,90.00767520786816,67.75656772544447,194355.9384917612,147164.5951354167,196181.84582660027,0,2011,1452,2
-525.8217776634342,89.21772564751846,76.36645648886851,193157.16542623786,144066.96081784554,206987.18384061375,0,2011,1452,2
-517.8706673030487,88.78051331745507,84.77657859840848,191870.05040767792,140987.68997329968,217926.86376555733,0,2011,1451,2
-512.945021006396,88.55491978655013,92.85798411431936,190504.13229207377,137940.973294072,228952.95853502242,0,2011,1449,2
-511.0501219007797,88.41199332904593,100.49260977620023,189070.67978093447,134943.75504989005,240018.1222537879,0,2010,1455,2
-512.1744336571271,88.24948281733516,107.58198939654484,187582.37112200484,132015.51305172904,251076.26552768738,0,2011,1450,2
-516.293889950264,88.00169223889732,114.05889597995471,186053.19661985885,129177.36099661613,262083.4483899139,0,2011,1453,2
-523.3723389674377,87.63999110011258,119.89597802722295,184498.40223507278,126450.84839538664,272998.45542601484,0,2010,1450,2
-533.3590316396878,87.16276309506407,125.10832440127436,182934.05920430186,123856.35435502668,283783.4351659561,0,2010,1450,2
-546.1857855356881,86.58067730932285,129.75056577111818,181376.37176722242,121411.50515216103,294404.370472553,0,2011,1450,2
-561.7656964383245,85.90253173629853,133.90611337077644,179840.88716175768,119130.189817244,304830.98505016614,0,2010,1452,2
-579.9940147787594,85.1232748229007,137.66924744257352,178341.58644169848,117022.09810218684,315036.47317012254,0,2009,1451,2
-600.7497596115263,84.21702918058253,141.1281655577346,176890.14241282418,115092.69147695969,324997.03591321263,0,2010,1454,2
-623.8962315487981,83.13724788476785,144.35448803673287,175495.56830018095,113343.62363765966,334691.16758982587,0,2011,1451,2
-649.2805843866089,81.8215723851988,147.39839945864261,174164.11624493,111773.40501971572,344099.15341914265,0,2008,1450,2
-676.7331942809305,80.19762623533072,150.28826012400643,172899.34198105027,110378.09975843407,353202.7164049444,0,2011,1452,2
-706.0681176944894,78.18915494514349,153.03367270970028,171702.28257676444,109152.02041362115,361984.6843839506,0,2010,1450,2
-737.0855847403916,75.72386554094433,155.63016364123752,170571.6335240616,108088.42664882478,370428.98642956,1,2010,1453,2
-769.5743050166413,72.7415087140474,158.06373626454337,169503.93711773082,107180.08775833163,378520.7636870576,0,2009,1451,2
-803.3127582950718,69.19979506153027,160.31482772940402,168493.84915941718,106419.57498529425,386246.39404707093,0,2010,1451,2
-838.0718445890149,65.0780773664368,162.36189974437102,167534.44649118115,105799.34090693189,393593.73653947667,0,2010,1452,2
-873.6181910716881,60.3787272570737,164.1836495678116,166617.47360169445,105311.72501149644,400552.36542573257,0,2010,1451,2
-909.7169998616417,55.12452371036406,165.75898881929282,165733.46747009867,104948.96554649892,407113.53461422486,1,2010,1450,2
-946.136226718013,49.35120976585229,167.06526323496237,164871.77860120288,104703.23708301307,413270.17195599223,0,2009,1451,2
-982.6512970862219,43.097917619576364,168.07562841668934,164020.59475186226,104566.74265774751,419016.838090174,0,2010,1452,2
-1019.0496188368995,36.39770454743573,168.7566978612659,163167.13241766908,104531.91906897262,424349.5004960183,0,2010,1451,2
-1055.136264669049,29.26764340692403,169.0676205864768,162298.09206031295,104591.75483242923,429265.3516601248,0,2011,1451,2
-1090.7381648544363,21.70089820132978,168.96147917139194,161400.2949693778,104740.09144120169,433762.6024135691,0,2013,1453,2
-1125.7042678624096,13.664771338109803,168.38952553189128,160461.38786806582,104971.78620844397,437840.0720463264,0,2012,1453,2
-1159.9035935400893,5.104028110940871,167.3073402980065,159470.5556785886,105282.73798127162,441496.70798718074,0,2010,1455,2
-1193.2221886903028,-4.054082765341244,165.67963227907347,158419.08875940845,105669.78639659793,444731.09884982184,0,2011,1455,2
-1225.5591205280825,-13.895122768194287,163.48058114448784,157300.68647741879,106130.41436067582,447540.9712830157,0,2016,1452,2
-1256.8227243304254,-24.51298931316225,160.69006552723113,156111.5933693481,106662.24534434594,449922.7480789867,0,2016,1453,2
-1286.9271406881828,-36.00573610838404,157.28918287995054,154850.721026919,107262.55677798719,451871.1570832446,0,2014,1450,2
-1315.7891222032008,-48.47225749763348,153.25798432275144,153519.7864848582,107928.11279605042,453378.8717801599,0,2016,1456,2
-1343.3259717687308,-62.0095617838073,148.57536183727544,152123.40736798503,108655.38883588894,454436.27208812523,0,2014,1452,2
-1369.4540146657623,-76.70975584942448,143.21988722773568,150669.14356628945,109440.96594035371,455031.3799063432,0,2009,1457,2
-1394.0869262085882,-92.65583705084133,137.1712993705573,149167.46637148305,110281.88487996491,455150.0145881208,0,2010,1455,3
-1417.134535473892,-109.91608568439078,130.41252369677724,147631.60239953775,111175.93199280789,454776.19222919166,0,2012,1455,3
-1438.5018693717918,-128.53819216202317,122.9318665714866,146077.325310086,112121.82758525063,453892.6084932548,0,2010,1454,3
-1458.0880146920445,-148.5441223409798,114.7253746052573,144522.68289973304,113119.35717493025,452481.0710323602,0,2009,1458,3
-1475.7855816711376,-169.92568456745633,105.79954857298266,142987.51634844812,114169.58501128887,450522.9345618257,0,2009,1462,3
-1491.482531112866,-192.6411958254503,96.17443927104688,141492.8779159399,115275.10209038963,447999.5602584642,0,2005,1462,3
-1505.0674454726122,-216.61383814731118,85.88696294021683,140060.5042987205,116440.17670442192,444892.7812036469,0,2008,1458,3
-1516.4360584212752,-241.73093792225998,74.99398982071274,138712.3114347548,117670.79570938418,441185.4265572178,0,2009,1456,3
-1525.497379244777,-267.84360897688066,63.574621943840164,137469.823700953,118974.57244548014,436861.94437643414,0,2000,1461,3
-1532.1804913600936,-294.7669174741098,51.731205951113786,136353.48484974515,120360.47414576959,431909.11074681976,0,2000,1463,3
-1536.4406246471967,-322.279462576692,39.58926469963166,135382.0272391774,121838.39672390852,426316.7982246961,0,2007,1456,3
-1538.2620930205305,-350.12219833437143,27.296727360041412,134572.0505930689,123418.61430379732,420078.6861363223,0,2002,1466,3
-1537.658882983275,-377.9980838936222,15.022591851383714,133937.67677420686,125111.11501859898,413192.82090097555,0,2004,1460,3
-1534.674569884101,-405.57176076205803,2.9558047002463645,133490.2295267166,126924.92712489497,405662.1804620338,0,2005,1457,3
-1529.3820676100374,-432.46705832003767,-8.696159700611,133237.89709248475,128867.52054334694,397495.2514039178,0,2000,1464,3
-1521.8828141744098,-458.262413067164,-19.71133660901376,133185.21762226618,130944.24000006609,388706.4106980466,0,2000,1466,3
-1512.304909110666,-482.48633093883205,-29.860210206606013,133332.45311492623,133157.74382415923,379316.2917520173,0,2001,1466,3
-1500.7998598465633,-504.617950195815,-38.916016438658794,133674.9662317812,135507.50727881156,369352.27922578965,0,1992,1470,3
-1487.5384588511818,-524.097170106435,-46.66927410921638,134202.5646539703,137989.46186687064,358848.9421245661,0,1994,1469,3
-1472.707165218864,-540.3410421216188,-52.94178517743767,134898.95792058652,140595.86660223047,347848.5953680042,0,2005,1460,3
-1456.5047670708395,-552.7651226973395,-57.59413669145856,135741.65695300983,143315.78624267032,336402.06768879254,0,2002,1463,3
-1439.139981336683,-560.8148101260485,-60.5255100868223,136702.4656880592,146136.4798292481,324569.33075820876,0,2000,1463,3
-1420.8324520331503,-564.0004683631287,-61.66606870477871,137748.36390068335,149045.1404196732,312420.08912347833,0,1990,1475,3
-1401.8149200833623,-561.9245782730236,-60.96320435484175,138842.61945744455,152030.1873369698,300034.0436869181,0,1988,1471,3
-1382.3317782632134,-554.2989030598586,-58.368527080679456,139946.0861360403,155081.7647166176,287499.9975393518,0,1995,1466,3
-1362.6343364238132,-540.9528489573653,-53.83528986882887,141018.438411609,158191.06573954725,274914.1751515117,0,2000,1462,3
-1342.9747934180941,-521.8365225797661,-47.32983337220732,142019.56859257905,161348.1370106,262377.9668804566,0,2000,1462,3
-1323.5988759344777,-497.02446514486445,-38.85183835665569,142911.63412931064,164538.67636104225,249994.52765116614,0,1997,1463,3
-1304.7382557077212,-466.72089048680874,-28.45376538326129,143661.15391295854,167741.34189468378,237865.39787534747,0,2000,1462,3
-1286.6024523119802,-431.2619924947383,-16.255088651414102,144240.32273972195,170926.94363236197,226088.04696989164,0,2005,1459,3
-1269.3693427619253,-391.1118374306679,-2.4535067719386103,144627.66200624465,174059.59060808667,214753.3801753831,0,2002,1466,3
-1253.1784109229602,-346.8543800940262,12.668020861639341,144808.28451374863,177098.86849414193,203943.52964297793,0,2000,1464,3
-1238.1297115136604,-299.18433002349155,28.74410467935691,144773.75358818145,180002.83939170753,193730.5803252375,0,1998,1465,3
-1224.2860824305915,-248.8963420108512,45.34107511260254,144521.56830233688,182732.17527967485,184175.51084579914,0,2001,1462,3
-1211.6764015836936,-196.8764664307508,61.97568814126879,144054.4240171196,185254.1559434287,175327.45494907998,0,1992,1470,3
-1200.2997137850807,-144.09781868224644,78.13573268472075,143379.22730315768,187545.15152285513,167223.76278827258,0,2000,1463,3
-1190.1298997664912,-91.61472265190575,93.30736688552398,142505.8134972475,189591.90425177698,159890.38717935083,46,2010,1458,3
-1181.1196955529056,-40.55064900044958,107.00475175023112,141445.7734383748,191392.02803668458,153342.35904662308,324,2016,1452,3
-1173.2025411949514,7.93509610186746,118.79605132795311,140211.77578360937,192953.78487466453,147584.31830959025,721,2014,1454,3
-1166.2915994168306,52.7187424483464,128.32995708481056,138817.3274314131,194295.4307984167,142610.78510235564,1423,2011,1451,3
-1160.2768822712796,92.80756430412292,135.3598541330682,137277.10691977222,195444.41058292496,138406.2031151515,1943,2011,1453,3
-1155.01865725089,127.44839054250393,139.7580310062375,135608.75201319563,196436.22146602723,134944.7620907909,2136,2013,1453,3
-1150.332069915862,156.24855434721223,141.52291611950258,133836.74706960682,197312.37619585992,132189.79103879712,2328,2016,1452,3
-1145.9703509011276,179.25701925236785,140.78631554751493,131997.1217144434,198117.22933662406,130093.52290428738,2576,2013,1449,3
-1141.63256666932,196.9307875982856,137.81959407781187,130140.17633558018,198893.25813175688,128599.04415472213,2639,2013,1450,3
-1137.0106118334506,209.98958328649042,133.02577149687215,128329.10499829726,199674.87162312237,127644.82023191516,2572,2012,1453,3
-1131.8552607535544,219.24732420550558,126.90548173475882,126634.57143445984,200482.91158642023,127169.51452693022,2559,2012,1454,3
-1126.0330096274993,225.48616768438615,119.99404809889919,125126.20300534453,201321.40913589357,127115.0624614731,2549,2022,1452,0
-1119.5603422146485,229.37201761977406,112.78190388060305,123862.4535683635,202175.83897098628,127428.27048231606,2572,2016,1451,0
-1112.6026056190096,231.4128743379379,105.65251050371965,122882.75262417892,203012.75460017982,128061.56110636932,2467,2010,1450,0
-1105.423516294175,231.97235267021517,98.85929543715822,122205.32193576197,203782.8229753776,128972.86314804773,2441,2025,1454,0
-1098.2987473550306,231.31950225851367,92.5327213068121,121830.35388632093,204429.08501580777,130124.7334523527,2485,2016,1451,0
-1091.4418784141385,229.67524699217347,86.70561010737349,121746.07541939385,204898.32701909717,131482.99544777564,2506,2018,1451,0
-1084.976152055799,227.23335872846138,81.34686551824942,121934.19414215373,205150.41538208642,133015.50154286623,2506,2016,1452,0
-1078.9437877588375,224.16263619495604,76.39694253983109,122372.59261370741,205163.18609055466,134691.70132944797,2578,2027,1451,0
-1073.3322896275433,220.60375520382001,71.80380889817167,123036.01901408013,204934.09652004568,136483.140802204,2630,2029,1453,0
-1068.1009616796528,216.6680103202333,67.54968788138626,123896.25342406063,204479.4983137052,138364.3524915679,2693,2020,1451,0
-1063.200013107575,212.4419208146208,63.65678321750872,124922.90327584941,203830.65275667186,140313.49663511367,2739,2026,1455,0
-1058.585165245708,207.9974355934099,60.17303340424794,126085.42524126808,203026.36234042465,142312.5006115764,2782,2043,1452,0
-1054.2274078852247,203.40182703482296,57.15032913866925,127355.59387779344,202105.14973491052,144346.6302805424,2851,2045,1452,0
-1050.113736512505,198.72170149503427,54.6269935827055,128709.33930721556,201099.7826498612,146403.4610524563,2923,2045,1451,0
-1046.2407776145064,194.02170069038223,52.61618964876526,130127.72453285803,200034.10341158032,148471.4979617078,2942,2028,1455,0
-1042.6071290307145,189.36231105136255,51.09860069021258,131597.00420441845,198921.95999564356,150539.0435581794,2959,2030,1455,0
-1039.206371452457,184.8000875077394,50.02057403817925,133107.64077654164,197768.74379648684,152593.87517747039,2970,2035,1451,0
-1036.0206584067087,180.3902921121103,49.298093180451275,134652.57323679535,196575.01141188917,154623.7549874748,2979,2047,1455,0
-1033.0178052352755,176.18955215128938,48.8251571993884,136225.4553569663,195340.4088597103,156617.23773748003,3004,2034,1450,0
-1030.1547461036596,172.25556701227205,48.486544405478185,137819.3126554603,194066.62715784617,158564.38025576947,2967,2042,1453,0
-1027.3859197259455,168.64235231787893,48.17487440568891,139425.5402002043,192759.4477972943,160457.36628992105,2962,2047,1453,0
-1024.672000260038,165.39283016634508,47.80631520938735,141033.28313593924,191429.80819379355,162290.89993854673,2927,2043,1453,0
-1021.9860771353196,162.5314455622665,47.32894575554952,142629.5415100773,190093.3305640192,164062.12612476072,2850,2045,1452,0
-1019.3167962412494,160.05943795019323,46.72300106673413,144200.23107701025,188768.18567761188,165770.1083450477,2783,2053,1453,0
-1016.6675174005164,157.9564446513915,45.994309701057134,145731.86189567816,187472.1399523682,167415.03680388947,2703,2043,1454,0
-1014.0522938919638,156.18795382079233,45.16470368049077,147212.9655568956,186220.22239743485,168997.4291303065,2604,2068,1453,0
-1011.491203949492,154.7141658765858,44.262854618788325,148634.7609332526,185023.6645267271,170517.55518901802,2423,2060,1454,0
-1009.0060090056694,153.49756559452152,43.315505579334,149991.2204010131,183889.7521716997,171975.1042241128,2369,2056,1451,0
-1006.6170184115708,152.50739189692922,42.34043219881964,151278.7684967613,182822.21313495215,173369.01582285055,2253,2056,1453,0
-1004.3421201989116,151.7201828757263,41.34361815543315,152495.706651566,181822.0587180829,174697.48107633123,2092,2047,1451,0
-1002.197264106784,151.1180492280506,40.3204942153478,153641.50936031106,180888.71844337948,175958.12281229504,1955,2047,1454,0
-1000.1971881252599,150.6868902330379,39.259472308631864,154716.22436261462,180021.02298267692,177148.2027725416,1862,2062,1455,0
-998.355796016813,150.41553357158747,38.14636955964307,155720.1487320945,179217.6457374781,178264.7501269594,1740,2064,1458,0
-996.6861424561313,150.29526660628866,36.968854100380014,156653.7631066129,178477.0351220947,179304.6767989619,1619,2098,1455,0
-995.2003173341667,150.3190386461442,35.7195095534329,157517.7796869289,177797.1292577574,180264.86546004226,1467,2095,1459,0
-993.9091461182306,150.48036292252203,34.39631563337001,158313.19095970734,177175.0626719991,181142.19032187594,1407,2093,1457,0
-992.821235152209,150.77232152565222,33.00112206110879,159041.28314909159,176606.9310745481,181933.54237137258,1294,2093,1462,0
-991.941614040614,151.18694254534273,31.5378165850302,159703.57485068042,176087.71674007026,182635.8859280068,1205,2080,1455,0
-991.2707766613612,151.7143619195961,30.011458710168505,160301.64966750864,175611.50375381607,183246.37059784794,1136,2103,1458,0
-990.8042670938519,152.3409417707457,28.428579206242052,160836.91908822974,175171.9509176491,183762.56392359236,1037,2093,1453,0
-990.5327836261562,153.04682948927,26.798068621264942,161310.390249646,174762.8142881982,184182.73785721135,933,2100,1455,0
-990.443297117758,153.80421916186455,25.131863451135604,161722.51956753148,174378.36108523014,184506.12594135696,906,2109,1453,0
-990.5210517166719,154.5769623767226,23.44516023972596,162073.20894546036,174013.67345200496,184733.16351044693,872,2121,1453,0
-990.751312579963,155.32145407938575,21.756248741443567,162361.94190729328,173664.82734543429,184865.64683060328,815,2126,1453,0
-991.1202611389544,155.98882790197717,20.08543880114705,162588.06742443552,173328.8642136607,184906.71894957402,804,2130,1455,1
-991.6152953296834,156.52860394464537,18.45274246415195,162751.22613637036,173003.55139144583,184860.71748383442,720,2117,1455,1
-992.2247912658933,156.892754869795,16.87521755624893,162851.76044456076,172687.0829761297,184732.9886831749,764,2123,1460,1
-992.9370747191568,157.0390359840537,15.364691650345872,162890.97263084122,172377.86578282856,184529.70507117014,713,2150,1458,1
-993.7388058168361,156.9337231125164,13.925916559270647,162871.27094097465,172074.39851313524,184257.66491933368,631,2148,1464,1
-994.6136364239534,156.5536063721878,12.55568651424196,162796.22441052273,171775.24047530539,183924.11135883557,552,2146,1478,1
-995.5420535521498,155.88629635059016,11.243360889243037,162670.4594027999,171479.08960594758,183536.59917199536,533,2185,1637,1
-996.5028005483343,154.9284460067839,9.97237709312757,162499.39335704397,171184.93052035122,183102.8636818636,479,2203,1643,1
-997.4752241087199,153.68276131888402,8.722099764889187,162288.92892555794,170892.16761703207,182630.6761191237,491,2217,1645,1
-998.4414268798893,152.15489948052232,7.470290756755318,162045.19828589,170600.6626334927,182127.63417111148,433,2218,1649,1
-999.3877612818617,150.35050875910719,6.196980528811988,161774.34446294061,170310.65731149795,181600.82280203095,348,2207,1645,1
-1000.3053737043377,148.27362737295522,4.88819236753851,161482.3193876079,170022.65872270876,181056.5173474714,302,2218,1648,1
-1001.1895877430065,145.92844845629716,3.5365379205365057,161174.6200856404,169737.39146272175,180500.2136866119,250,2225,1669,1
-1002.0388647444317,143.3233522927896,2.13908859893221,160855.94348966956,169455.8583251052,179937.00148137697,257,2244,1679,1
-1002.8542932766769,140.47314811063134,0.6956974676419585,160529.9623158636,169179.46571779603,179371.96861115264,193,2240,1690,1
-1003.6396614594504,137.39708690053732,-0.7908486690814411,160199.39974468845,168910.09808729324,178810.2666865165,234,2228,1691,1
-1004.4017772282954,134.11442281915717,-2.313623439820326,159866.35031530555,168650.05789239457,178256.78220576502,155,2262,1705,1
-1005.1506474530222,130.64134832117068,-3.860413214698932,159532.66370494303,168401.89628677344,177715.72480104907,67,2237,1732,1
-1005.8988450638311,126.99087893523361,-5.413659985608678,159200.2738040568,168168.13541424798,177190.37893020263,63,2244,1751,1
-1006.6599683977732,123.17453291282747,-6.951912449062915,158871.469831103,167950.85857292303,176682.99377412765,83,2227,1753,1
-1007.4469934804054,119.20438371967975,-8.452213239717173,158549.06637806149,167751.3156021119,176194.76898646718,35,2223,1781,1
-1008.270998452136,115.09481331362277,-9.893051807003872,158236.3669478493,167569.7476606536,175725.97425049866,2,2286,1742,1
-1009.1402039469089,110.86390988547333,-11.257700112700938,157936.92648929477,167405.4686323495,175276.19908018227,4,2271,1769,1
-1010.059353927842,106.53442650835306,-12.536476175013354,157654.27738086312,167257.12035073398,174844.64844033655,19,2267,1764,1
-1011.0295691591201,102.1338950968482,-13.726439413020705,157391.7282288514,167123.0300466015,174430.4076396027,3,2272,1779,1
-1012.0489936108589,97.6939978891983,-14.829095555428017,157152.20242783034,167001.60820701974,174032.6698239456,0,2282,1785,1
-1013.1143405867123,93.2497662799898,-15.847946060688729,156938.11204345935,166891.64288570092,173650.90911978995,1,2259,1795,1
-1014.2229505720943,88.83813174449604,-16.78676555567407,156751.2895919422,166792.35677937072,173284.9276774436,0,2227,1834,1
-1015.3747320796541,84.49512536231063,-17.648285430188192,156592.95169041888,166703.26594621706,172934.7404292165,8,2237,1830,1
-1016.5731424487053,80.25301690565041,-18.43330969456183,156463.68014630102,166623.99775688988,172600.37024350735,5,2257,1830,1
-1017.8249273781325,76.13901934160235,-19.140744555726037,156363.41621076444,166554.17716111438,172281.64510345564,0,2202,1891,1
-1019.1392476870917,72.17541810111133,-19.76835411302622,156291.4561450446,166493.37810878182,171978.02636421635,0,2216,1889,1
-1020.52672744741,68.38054361445148,-20.313572958006546,156246.45986671624,166441.1128070827,171688.4805274242,0,2207,1901,1
-1021.9985153390779,64.77026093834633,-20.77394767382234,156226.4887835302,166396.85889270535,171411.40123516263,0,2209,1905,1
-1023.5657319004125,61.359209308054965,-21.14710063744223,156229.06088850572,166360.12037687376,171144.58760361315,0,2140,1967,1
-1025.2399563258089,58.160850966630555,-21.430390690006156,156251.2087191757,166330.51801058816,170885.28157218907,0,2142,1992,1
-1027.0344290797632,55.18620564398254,-21.620512193848366,156289.5463291191,166307.89793461628,170630.23496203992,0,2149,1987,1
-1028.9648164032367,52.44236570305487,-21.713153571299372,156340.35180406863,166292.40878905932,170375.7761436357,0,2154,1999,1
-1031.0493062088947,49.93175364327997,-21.702836556340934,156399.6932421808,166284.49739902816,170117.85943779864,0,2151,1997,1
-1033.3086344314859,47.6518929361561,-21.583057586304097,156463.62402999564,166284.83845409314,169852.0783518955,0,2080,1876,1
-1035.7663056823699,45.595303464504624,-21.346719104519227,156528.39876900002,166294.25480228174,169573.63367662404,0,2087,1890,1
-1038.4490439051126,43.74956226922075,-20.98673163433448,156590.664046773,166313.65215928326,169277.23325322173,2,2073,1915,1
-1041.387441174474,42.09773200997611,-20.496814855069413,156647.63210388747,166343.95938857668,168956.90850544098,0,1973,1987,1
-1044.6160089895193,40.61981573670141,-19.872847184606304,156697.25378627615,166386.07832835076,168605.85198574292,0,1976,1995,1
-1048.1711796652874,39.295602903317956,-19.114845393607922,156738.41175065457,166440.85866164198,168216.4122165438,0,1948,2030,1
-1052.0874380681205,38.10785299900575,-18.228142472256646,156771.11211817924,166509.12157584872,167780.24775376738,0,1917,2058,1
-1056.394146682647,37.04449543423972,-17.221728737637243,156796.601713427,166591.78077054748,167288.57458256534,0,1823,2117,1
-1061.1149847469335,36.09946090478133,-16.104571847443932,156817.34875737317,166690.0648283925,166732.41956595087,0,1759,2163,1
-1066.2694463438015,35.2723475408221,-14.883033448543824,156836.906402047,166805.708355132,166102.77685702933,0,1704,2211,1
-1071.8750802523361,34.56747205974942,-13.560050185339831,156859.76755269658,166940.9619073997,165390.650678741,0,1639,2238,1
-1077.9497442254487,33.993015641506474,-12.134203559446215,156891.27749014317,167098.44893111754,164587.0468396015,0,1596,2271,1
-1084.5129995132868,33.56063854009901,-10.59833003932572,156937.5602329396,167281.0119131017,163682.97464772794,0,1523,2330,1
-1091.5861597122723,33.285441233688,-8.939305133246547,157005.34200932147,167491.59706841173,162669.46278274475,0,1463,2351,1
-1099.191766212737,33.18618929552948,-7.139645577458833,157101.62110650024,167733.12610827066,161537.56131628316,5,1391,2421,1
-1107.3531818798933,33.28589243886167,-5.180008549848049,157233.31362051243,168008.33575565575,160278.36461497124,0,1330,2443,1
-1116.0943249580928,33.612573005583755,-3.0420558909849054,157406.99709059857,168319.60529762667,158883.07481896423,0,1246,2484,1
-1125.4391901506515,34.19973694201533,-0.7115532951876903,157628.73629320407,168668.7884747603,157343.0684378816,0,1198,2498,1
-1135.410455659398,35.08575135339626,1.8187872654759185,157903.9687603972,169057.0817340111,155649.99584080876,0,1074,2545,1
-1146.027064094449,36.31185377922983,4.547040436886524,158237.4466474701,169484.95561164958,153795.96792860833,0,1041,2569,1
-1157.3015892859996,37.91965536437339,7.460682289790083,158633.21432598514,169952.14855556874,151773.80925283334,0,1013,2616,1
-1169.2381215287023,39.94869163034545,10.536649868758671,159094.6297901839,170457.7444530935,149577.29494361673,10,927,2637,1
-1181.8306286296881,42.433864934922774,13.742807997271953,159624.4362641307,171000.33906615688,147201.2956727708,7,836,2702,1
-1195.0614038255335,45.403359470332624,17.03983745556405,160224.8357306629,171578.20273752417,144641.86427368034,0,749,2731,1
-1208.8996288012472,48.877945276713554,20.38285506841912,160897.54574048799,172189.3648962814,141896.28849516241,3,750,2718,1
-1223.29992188411,52.87146449764612,23.722800726273658,161643.8617554586,172831.63806068682,138963.0788805356,1,674,2779,1
-1238.2002355747181,57.39153148523375,27.007225958259184,162464.6939943459,173502.5899777604,135842.01420611117,3,623,2794,1
-1253.5190598115419,62.43997515640539,30.180092859838645,163360.56704008073,174199.48853537484,132534.32863845502,4,581,2806,1
-1269.15265409026,68.01280772396422,33.18107657670435,164331.620649523,174919.27899870163,129042.93426162093,0,539,2806,1
-1284.973263310377,74.09894294579696,35.945226827950826,165377.58677955173,175658.59319477124,125372.67122939398,0,497,2857,1
-1300.8286476710257,80.67739713604507,38.40340304771792,166497.70084594307,176413.76086896265,121530.63927153796,0,417,2873,1
-1316.5420169144345,87.71430096352447,40.48312216421945,167690.5606559506,177180.8180833756,117526.5825196028,0,404,2870,1
-1331.9123212092793,95.16141366228615,42.10940533890095,168953.9433009422,177955.52721796444,113373.26701180941,0,383,2889,1
-1346.7160075015101,102.95634787892863,43.20571942507404,170284.57166741427,178733.43120263072,109086.79273659918,0,303,2930,1
-1360.710003074013,111.02335076338669,43.69521652887908,171677.82848376842,179509.9279284508,104686.90635182417,0,319,2929,1
-1373.6363085647752,119.27418602440939,43.503064401260346,173127.38982577962,180280.38969462947,100197.30082937703,0,307,2923,1
-1385.2291489719896,127.60952131547008,42.56053985378668,174624.73529211595,181040.38112930252,95645.72344636428,0,277,2950,1
-1395.2219391802778,135.92047824324115,40.80922736603381,176158.57230916273,181785.86947980884,91063.95798939458,8,280,2934,1
-1403.3511214168518,144.08966996554227,38.20339598477935,177714.28913346006,182513.30450054418,86487.72959663345,0,313,2928,1
-1409.3574668239646,151.99098650838184,34.71153066448007,179273.5533708183,183219.62736344693,81956.40152617628,0,350,2903,1
-1412.9866378215486,159.48689455517166,30.318326256611197,180814.14798342582,183902.29674345074,77512.69776611254,0,434,2814,1
-1413.9932168147188,166.4227167397602,25.026534865182626,182310.22326058228,184559.37982811683,73202.60052007185,0,491,2778,1
-1412.1522045711326,172.6195939381545,18.858334964354132,183733.11191328126,185189.7099373607,69075.13605465528,0,594,2694,1
-1407.2744383988409,177.87141229819616,11.857145271413977,185052.54055379287,185792.98087777873,65182.01307070172,0,678,2617,1
-1399.2195105620312,181.95419447331918,4.090373763421162,186238.4216499388,186369.59205287916,61577.0025965432,0,791,2519,1
-1387.904003763918,184.65047486955604,-4.3482598827439265,187263.62607666344,186920.1666440878,58314.7562275197,0,858,2457,1
-1373.3039081875584,185.7781416259754,-13.338088140884262,188107.0240992628,187444.84845502634,55449.47140334114,0,987,2354,1
-1355.4505415596766,185.21400264373008,-22.731427991745022,188756.00091298344,187942.51579980965,53033.78625774021,2,1109,2235,1
-1334.4224277082997,182.91187117494977,-32.3532508465496,189208.54846906118,188410.0394680731,51117.63837694336,3,1220,2168,1
-1310.3346137752644,178.91482057533474,-42.00141156215501,189474.59658798986,188841.8414012899,49747.24989499765,4,1329,2071,1
-1283.3255308944981,173.36014418902047,-51.44680464497003,189575.79035145495,189229.92210003332,48964.5869860886,0,1427,1980,1
-1253.5456322880277,166.47651527513008,-60.43308930454183,189543.64583067814,189564.18389131123,48807.07656726263,0,1554,1863,1
-1221.1514618750605,158.56827082901285,-68.68140080059835,189416.8359789797,189832.66750356453,49307.371419361196,1,1676,1758,1
-1186.3046130820512,149.98445598280483,-75.90508259296367,189237.8771465612,190021.43232303046,50493.141905380544,0,1711,1716,1
-1149.175772019357,141.08428107188655,-81.8293700813597,189049.0320973644,190114.18647074,52386.783535410614,0,1779,1655,1
-1109.9536761046234,132.2088403523596,-86.21077043743175,188888.45662826256,190092.03237662473,55005.007801479616,0,1862,1582,1
-1068.856795244221,123.65668905171142,-88.85786873030638,188787.62444277707,189933.6785292743,58358.44296637051,0,1900,1546,2
-1026.1447352829605,115.66510931490711,-89.64988858074202,188769.73537012,189616.23060059446,62451.33777923463,0,1925,1523,2
-982.1244962472489,108.40227773103666,-88.54506747680313,188848.96066109661,189116.39193009547,67281.34853652013,0,1942,1505,2
-937.1481822587343,101.96823618445937,-85.5786575260235,189030.66501590473,188411.9727452997,72839.39736893272,0,2000,1462,2
-891.6053105766695,96.40096176055937,-80.85512590105336,189312.25911243414,187483.71526275048,79109.60272679398,0,1970,1483,2
-845.9127376580027,91.68807589731186,-74.53458842532754,189684.48557740913,186317.46471673975,86069.41985747473,0,2015,1454,2
-800.5017048713831,87.78485276312446,-66.81170162792844,190133.1451361197,184906.60258780114,93690.11367548691,0,2014,1449,2
-755.8061865376145,84.63314585598086,-57.89271103147759,190640.74038178814,183254.01108002572,101937.18743726872,0,2015,1449,2
-712.2550864877297,82.17575155023812,-47.97606510077013,191187.61901019042,181372.60461000522,110770.73820126223,0,2012,1454,2
-670.2644291634676,80.36639454359845,-37.23512030105147,191752.86004689927,179284.25848354097,120146.27775617472,0,2018,1452,2
-630.2306189283576,79.17494476625838,-25.80618990701018,192315.0144949793,177017.76980318938,130015.76999711097,0,2012,1452,2
-592.5265802079944,78.58551892627544,-13.788955860386965,192852.70483181914,174606.09444855,140328.6638780123,0,2011,1451,2
-557.4968785598137,78.58795529404856,-1.2581166686794987,193345.3120971126,172082.8263710096,151033.252157783,0,2012,1451,2
-525.4519842880712,79.16609321104099,11.721770296326149,193773.7208592769,169479.05277783485,162077.70313045967,0,2009,1451,2
-496.66575550166067,80.2841459433411,25.082245742670324,194120.97364703185,166821.57288191598,173410.28662084357,0,2010,1451,2
-471.3773060213657,81.87162697210235,38.735350410347515,194372.85762626314,164132.0602396408,184979.4926987994,0,2010,1451,2
-449.7959274752684,83.81380043958367,52.55923277924337,194518.45355845074,161426.94230849502,196734.1385606843,0,2006,1453,2
-432.1037793708798,85.95729739962201,66.3965496134533,194550.959475578,158718.4777669826,208623.35231943926,0,2007,1454,2
-418.4506525506096,88.13076119865688,80.07204462032766,194469.06611159968,156017.1019815927,220596.81575319343,0,2006,1455,2
-408.94501137342587,90.16808897445661,93.42022023674151,194278.2631813673,153334.12314463404,232604.91585211584,0,2009,1453,2
-403.6508688630183,91.92478505873288,106.31213269013622,193991.0233684619,150683.55680812895,244598.6556783838,0,2011,1449,2
-402.590927095276,93.28949499326733,118.67906705885201,193625.57699233844,148082.58898733693,256529.94055326388,0,2008,1453,2
-405.7501051037519,94.19190118986181,130.52677179639252,193203.9738767277,145550.8078799358,268352.00520725665,0,2009,1451,2
-413.07819064858217,94.6016081252702,141.92923471056054,192750.01139440245,143108.2230793462,280019.81548944785,0,2011,1454,2
-424.49248897503634,94.51564929832027,153.0032850214615,192287.13101849347,140772.25735519954,291490.98479058495,0,2008,1453,2
-439.87910013298887,93.94094264241325,163.87951095933394,191836.77445725194,138555.04241512495,302726.6454562959,0,2008,1455,2
-459.0927353345144,92.87974272469994,174.6807297809717,191417.56072565544,136462.29696710024,313691.58157964767,0,2009,1452,2
-481.9569442252118,91.32112874400372,185.50644498983996,191044.8780946814,134493.64429078077,324354.0292768831,0,2010,1451,2
-508.2649046519443,89.2402021790041,196.4221281897665,190730.55638576884,132643.71652172733,334685.2147977328,0,2008,1455,2
-537.7801968181512,86.60687074537418,207.45712081065446,190482.58123432237,130903.73377865799,344658.64717664616,0,2009,1450,2
-570.2378202428584,83.40111718159947,218.61087415939636,190304.79816513334,129263.3257723108,354249.72713325586,0,2010,1451,2
-605.3450890462882,79.62618974912857,229.86188475478204,190196.62514972495,127712.05476326119,363435.6282443136,0,2010,1451,2
-642.7843632371028,75.31377332400393,241.17497320765747,190152.70583546496,126240.19352989456,372195.3169622725,0,2010,1451,2
-682.2202353915834,70.52215727145078,252.5052772121159,190162.34946593258,124838.88395739971,380510.0143708835,0,2009,1452,2
-723.3074781384668,65.33086084486457,263.7977341162463,190208.92996462804,123500.04329455952,388363.7161807419,0,2010,1453,2
-765.6965033710588,59.83266809087803,274.9833613133779,190269.65956384703,122216.26620650887,395743.3961355133,0,2008,1452,2
-809.0386020797266,54.122922206862384,285.9756533299758,190315.90407772773,120980.84995229497,402639.2371314522,0,2008,1452,2
-852.9905170167882,48.28899246002213,296.66895823078465,190313.88911880492,119788.02557232617,409044.77870160976,0,2009,1455,2
-897.2179806132634,42.40172844523258,306.9398962602472,190225.8274800505,118633.39134252176,414956.7441877763,0,2010,1453,2
-941.4014507159006,36.507438045220496,316.6518967482399,190011.6125388473,117514.40958548254,420374.84301617957,0,2009,1454,2
-985.2426023554517,30.621860775845995,325.6604427183264,189630.70579544164,116430.76413300267,425301.5497504756,0,2009,1452,2
-1028.4688721080881,24.728925205811937,333.8178068634474,189043.98610886157,115384.35004773884,429741.66767140984,0,2007,1453,2
-1070.8369618690049,18.78325638405415,340.97862130057484,188215.80833465635,114378.79003302522,433701.7841682714,0,2008,1453,2
-1112.1335125867529,12.714093656805789,347.00525454751113,187115.96324674337,113418.6967163923,437189.6488335845,0,2008,1453,2
-1152.1712462530327,6.430400588468149,351.77012122149335,185721.08932415233,112508.87547189515,440213.4265293553,0,2009,1453,2
-1190.7834202251881,-0.17275146726823248,355.15417722445574,184015.67506988824,111653.46473663046,442780.9480128946,0,2010,1451,2
-1227.8190844809255,-7.208220914850964,357.0433816517699,181992.7420227988,110855.27903876248,444899.0995914693,0,2009,1454,2
-1263.1405301547939,-14.792156475287072,357.3261233013209,179654.0992845914,110115.71568821078,446573.4052427325,0,2005,1457,2
-1296.623644719402,-23.040014484020954,355.8929752241333,177010.2305364289,109435.18871249052,447807.7765970952,0,2009,1453,2
-1328.158806928852,-32.06344944885965,352.63826575444506,174080.04554788326,108813.79306769664,448604.35138972546,0,2010,1452,2
-1357.6508754011352,-41.96848186667315,347.46415865914383,170890.5152987631,108252.00095203723,448963.4197624248,0,2009,1454,3
-1385.0196999965383,-52.85408956119551,340.28792058599976,167476.01735206775,107751.33577422942,448883.490899086,0,2008,1451,3
-1410.2001053258032,-64.80994156944877,331.0501067462902,163877.56802687008,107314.90487073707,448361.4292132937,0,2008,1455,3
-1433.138793180373,-77.91242360091097,319.7214459835924,160141.96544300145,106947.68472106488,447392.54187431483,0,2009,1453,3
-1453.7887538343696,-92.21928436010303,306.30851754861544,156320.5364862057,106656.60456645541,445970.62135929026,0,2010,1452,3
-1472.1041300699812,-107.76512263716734,290.85759603494625,152467.78567352638,106450.49385220982,444088.0437950403,0,2010,1451,3
-1488.0390922020747,-124.56087608975044,273.4546545472832,148640.15019135928,106339.89035499521,441735.99749031215,0,2010,1453,3
-1501.5520192337608,-142.5979603416863,254.22156973941853,144894.50846762114,106336.7256525748,438904.83088368445,0,2011,1453,3
-1512.6113541437144,-161.8529992354697,233.31193788304344,141286.74516671232,106454.00593116948,435584.469064574,0,2011,1451,3
-1521.1992324776083,-182.28812730224055,210.90906007453992,137870.71077824707,106705.52614590888,431764.81768750027,0,2013,1451,3
-1527.3126764163765,-203.8454369740891,187.22587647215408,134697.22191974078,107105.51683699369,427436.11186794104,0,2012,1451,3
-1530.9634156231725,-226.43769445052416,162.50623465039794,131813.13735309,107668.21740463343,422589.3160037544,0,2011,1454,3
-1532.1784105703366,-249.93884511132833,137.02496965869878,129260.59403294364,108407.37026992845,417216.6121947906,0,2005,1458,3
-1531.0035390562289,-274.1772064652113,111.08391880632747,127076.03968434183,109335.55676499997,411311.8797960288,0,2004,1461,3
-1527.5091679408897,-298.9328088138778,85.00568696481432,125289.18442489664,110463.4971991799,404871.1998170133,0,2004,1459,3
-1521.7934094261418,-323.93916166327386,59.126423753464344,123922.11559358789,111799.50930262238,397893.3516883967,0,2004,1458,3
-1513.9809981894234,-348.8873374413474,33.78591101950945,122988.39989898741,113349.1080829466,390380.1916649303,0,2007,1457,3
-1504.2194285115884,-373.4277837450025,9.31740649980843,122492.29077332884,115114.66169837021,382337.16938725597,0,2005,1456,3
-1492.675042733092,-397.16893942755803,-13.961114443845663,122428.24450462688,117095.1251220839,373774.20705759665,0,2004,1457,3
-1479.530914098036,-419.67720093414425,-35.75738823466544,122780.57304958135,119285.94062717537,364706.76285281277,0,2004,1463,3
-1464.9862743844835,-440.4814018582729,-55.81519655740102,123523.18533907318,121679.1796265764,355156.95990555186,0,2001,1466,3
-1449.254033385864,-459.0861151423729,-73.91983255199132,124619.71141229157,124264.2262245204,345154.63194078073,0,2000,1462,3
-1432.5554374920494,-474.99869687829005,-89.89800432697298,126024.22506982298,127029.25640320132,334738.09257070674,0,2002,1462,3
-1415.1167355066566,-487.7622362131174,-103.61190049560692,127682.40433202541,129962.93394771965,323954.8546355002,0,2002,1461,3
-1397.169598576355,-496.98154098122814,-114.94746887647752,129533.13336461209,133055.53312813406,312862.1179662456,0,1997,1463,3
-1378.950667240327,-502.33780953793655,-123.80296345496099,131510.64869104416,136299.23018247323,301526.3176572836,0,1997,1462,3
-1360.6977662960264,-503.5916300892431,-130.08592479048343,133546.70344287914,139687.34263231888,290021.9354581656,0,1997,1463,3
-1342.6433396308637,-500.5787129950767,-133.7206374815238,135572.7330597913,143212.2906696983,278429.6417381825,0,1998,1462,3
-1325.0048941327361,-493.2063331150831,-134.6618800562137,137522.6232465725,146862.73487900887,266833.309494323,0,2002,1459,3
-1307.9748404174138,-481.4538378393694,-132.90851592829222,139335.44607887336,150621.12550993805,255317.078467712,0,2002,1460,3
-1291.7126836449395,-465.3762499450417,-128.51422939793005,140957.37687797868,154462.7045724771,243963.44317368302,0,2002,1462,3
-1276.3394972726444,-445.10885410999174,-121.5965169438084,142343.19104644033,158355.98215749726,232851.5814166615,0,1997,1463,3
-1261.9350076302528,-420.8701710421264,-112.34259599355148,143457.48040420187,162264.0263867478,222056.00631117268,0,1998,1463,3
-1248.5376920918527,-392.9619779643085,-101.01050517458934,144275.32562662935,166146.1216947193,211646.08679510944,0,2000,1462,3
-1236.1469366402093,-361.7673326997743,-87.92609213203032,144782.58479247012,169959.70900866273,201685.96318547303,0,2001,1462,3
-1224.7261867473562,-327.7451714165208,-73.4736652087948,144975.93173350676,173662.7526772735,192234.23076209545,2,2001,1463,3
-1214.2062077982807,-291.4188415689204,-58.077361906019966,144862.62119928785,177216.5997195699,183343.18624831436,0,1997,1465,3
-1204.4885696374909,-253.36468470687922,-42.1789639250282,144460.00876431898,180588.38870397757,175058.17455148872,73,2010,1455,3
-1195.451980234775,-214.2109201093108,-26.219259341784063,143794.45666556447,183751.9922245914,167417.35686612964,175,2009,1456,3
-1186.963965541143,-174.64795093677967,-10.623542037630264,142899.19792457268,186687.68473873628,160451.4123213236,552,2005,1454,3
-1178.8945868063322,-135.4409876898863,4.206448135213071,141811.64833470012,189381.1423306662,154183.20906144567,988,2014,1454,3
-1171.1259837442199,-97.42252297177855,17.893672417270675,140570.74330661795,191822.48813109903,148627.60242022458,1600,2014,1449,3
-1163.555842573642,-61.44169574172082,30.087797721171313,139214.45373654587,194006.2458856706,143790.99802899733,1870,2013,1451,3
-1156.0967014295725,-28.27671778370702,40.47368164939559,137778.4321765855,195932.54163687216,139670.7287473282,1979,2013,1451,3
-1148.6728554941951,1.4760612730002682,48.79230253065497,136297.3230901437,197609.4941599062,136254.2106154169,2046,2013,1451,3
-1141.2185490562943,27.509067346111056,54.887158722465074,134808.91097508968,199055.68572886375,133517.8060910249,2115,2014,1453,3
-1133.68546317576,49.83437877516955,58.77019014519509,133358.65522536804,200300.20766195777,131426.51910351674,2207,2013,1451,3
-1126.0594185243635,68.71620538828691,60.66266852615624,132000.92361655724,201379.24184275488,129935.38378649767,2134,2017,1451,3
-1118.3727137705462,84.56113447452223,60.962413056362244,130794.51481747991,202329.7416774312,128992.22276481734,2090,2013,1452,3
-1110.7032655515475,97.80772019534848,60.14710052650424,129793.8625093021,203181.15471401517,128541.36147827092,2068,2011,1449,0
-1103.1641711873128,108.84423114123402,58.680839907611194,129041.22218877541,203948.48554741225,128527.38600611022,2142,2011,1452,0
-1095.8861150680234,117.98099130971639,56.963211032280384,128563.3937146809,204630.36927271454,128897.9154479252,2137,2016,1451,0
-1088.9913781224643,125.46912154703817,55.30368483475051,128371.8222466348,205212.10000063234,129605.10828068621,2081,2017,1452,0
-1082.5669488673996,131.53555830166866,53.9061877831689,128464.0970789512,205670.78361425558,130605.7853788972,2155,2020,1452,0
-1076.6480116762016,136.40898999673428,52.87061359630785,128826.52901203705,205980.83779389792,131860.39734334048,2074,2021,1450,0
-1071.2145130409942,140.32805154730113,52.214558473015884,129437.62846285412,206119.69369955698,133331.6335997178,2101,2023,1452,0
-1066.1988574891718,143.53500706896202,51.902779069062646,130270.97575996182,206072.48969007828,134983.51288255164,2109,2030,1452,0
-1061.5044822652264,146.25960947255197,51.870001635981346,131296.26237083384,205834.412899497,136781.49199521786,2179,2036,1453,0
-1057.0331411240315,148.69868270697344,52.035186419817386,132479.14773600522,205411.1339088414,138693.48974760374,2236,2043,1455,0
-1052.7101113794108,150.9996530265853,52.310914529010745,133781.22561504965,204818.10837811776,140691.02296900508,2264,2031,1452,0
-1048.4962042502782,153.25366513779298,52.61218419966168,135161.1446651682,204078.7412187346,142749.70317869532,2287,2042,1455,0
-1044.3868743585456,155.49736881642454,52.86818189742755,136577.48170232642,203221.0964992618,144848.91743844238,2345,2041,1453,0
-1040.4045415147418,157.7201031475795,53.03269430328862,137992.59912398,202273.75803145205,146970.84555825577,2395,2046,1453,0
-1036.5870316492837,159.87505070566925,53.08570507677068,139375.72901002012,201262.40941137244,149099.2790365147,2443,2047,1453,0
-1032.9734051264186,161.894309214065,53.02546320576475,140704.4177587595,200207.82399692346,151218.79881788846,2481,2064,1454,0
-1029.5917041790292,163.70503758592875,52.85661061837302,141964.69587308855,199124.8603238928,153314.43583505845,2504,2057,1452,0
-1026.452909759662,165.24239181176512,52.58074309742693,143150.43007456607,198022.34644564238,155371.6443067275,2531,2056,1454,0
-1023.5509150250413,166.45913103687187,52.19247022489032,144261.89829174292,196904.1571862485,157376.58492325078,2526,2056,1454,0
-1020.8661569254989,167.33320526545253,51.6806397517482,145303.65390449087,195771.35505369966,159316.75871749406,2506,2047,1450,0
-1018.3704301526896,167.8710715300184,51.03286657070492,146282.29066803888,194624.51190022344,161181.662510302,2497,2056,1453,0
-1016.0319232288557,168.103516534811,50.2414002502091,147204.58713019363,193465.483677666,162963.16302417777,2390,2056,1455,0
-1013.8206027262469,168.07504244076765,49.30859279454224,148075.955978637,192298.60497546187,164655.67414033363,2308,2068,1453,0
-1011.7126532779066,167.83256690881518,48.24982572330991,148899.40015917618,191131.20112516196,166256.1606027216,2281,2072,1452,0
-1009.6925602748678,167.4176862670563,47.092249005008064,149675.37463863424,189973.03918999035,167763.8648498888,2144,2089,1453,0
-1007.7530409386434,166.86231854480877,45.86978385603542,150402.4355758061,188834.8046323314,169179.80705350093,2018,2086,1453,0
