AccX (g),AccY (g),AccZ (g),GyroX (deg/s),GyroY (deg/s),GyroZ (deg/s),Heel ADC0,MidFoot ADC1,Toe ADC2,LABEL
-1004.5545672870151,113.13751757960223,-27.981145650758094,115355.23454868031,119200.89140765571,168527.21527861824,2190,2039,1424,4
-1004.3240822936272,110.26418311709467,-23.78586515604002,115993.76840025921,118853.9820491487,169799.14239057945,2070,2032,1431,4
-1004.0776196603874,107.43550779174099,-19.739077727099012,116631.58400386453,118505.47881239427,171099.23267965615,1997,2034,1436,4
-1003.8078580252774,104.68524691124898,-15.874974796172198,117263.7537827161,118156.89445525785,172421.45145409324,1961,2030,1431,4
-1003.5105677683301,102.0413644627088,-12.229819001356024,117885.6709595044,117809.80756120344,173759.62988389976,1939,2026,1438,4
-1003.185218129735,99.52592307449649,-8.84125521227357,118493.1682373804,117465.95049066198,175107.42083386952,1883,2024,1447,4
-1002.8348133601935,97.15612991380563,-5.745994798508622,119082.71813763017,117127.27390194194,176458.26372066047,1786,2022,1460,4
-1002.4649446473792,94.94547607880313,-2.9766819556901676,119651.64734858177,116795.94367357524,177805.35433535167,1690,2008,1458,4
-1002.0822982494194,92.9046042183113,-0.5589787771679884,120198.23278794752,116474.24547233983,179141.6299827456,1655,1999,1469,4
-1001.6933417162077,91.04178090988499,1.4905753387956797,120721.64656618732,116164.40682153654,180459.84238974573,1605,2000,1463,4
-1001.3039499878705,89.36287775437951,3.165332781623485,121221.77832598399,115868.429883894,181752.66889527676,1416,1985,1476,4
-1000.9198227638864,87.87111377861618,4.468152979267883,121698.97275934798,115588.00640351015,183012.82305928558,1373,2005,1467,4
-1000.5470358580161,86.56693276275732,5.410815776571732,122153.72943752538,115324.48920541417,184233.23793691024,1273,2000,1483,4
-1000.1922834755082,85.44818885199166,6.013446589606783,122586.43095198272,115078.89273043373,185407.2673185361,1242,2018,1474,4
-999.8624486258755,84.51039936470973,6.303294892593334,122997.1407493006,114851.90169896866,186528.83688046134,1132,1996,1475,4
-999.5635672202785,83.74652973443258,6.312513785453164,123385.46358468915,114643.85029449263,187592.6123722496,1188,2010,1469,4
-999.2998538592565,83.14617769488362,6.075711511199729,123750.474807226,114454.68274016197,188594.15857263262,1088,2011,1476,4
-999.073323617561,82.69450637431171,5.628004604298664,124090.76424679969,114283.94832230652,189530.03593401366,1005,2001,1493,4
-998.8840892881335,82.37135703771584,5.003538690719061,124404.60954191357,114130.85407361625,190397.87979262677,980,2001,1487,4
-998.7311729731792,82.1512408939143,4.234416026670842,124690.19568135052,113994.35535343511,191196.4286143008,949,2000,1495,4
-998.6135106140747,82.0051514030731,3.349754829309356,124945.8340216883,113873.2469738677,191925.4308797327,902,1972,1514,4
-998.5306676162211,81.9040684764231,2.3746594257893747,125170.2271985767,113766.2154992092,192585.4623096472,848,1982,1506,4
-998.4828908734102,81.8222727850864,1.3295502649015356,125362.73363685585,113671.83588894614,193177.71726739526,804,1987,1506,4
-998.4704571170724,81.73888294058526,0.23015639554373674,125523.53791626729,113588.53458745671,193703.8036500937,791,1996,1503,4
-998.4924247063749,81.6378752517025,-0.912021384543429,125653.72418009963,113514.55650620339,194165.55612202192,831,2010,1515,4
-998.5452976541087,81.50758119463494,-2.088980939249904,125755.2567965573,113447.96970746304,194564.8934712658,796,2011,1515,4
-998.6225527373037,81.34014802827414,-3.2953056296605454,125830.83430649864,113386.74036168451,194903.740810419,798,2019,1509,4
-998.7154187261389,81.13080446316829,-4.527176485612059,125883.62806009257,113328.88028527141,195184.00089012005,775,1998,1526,4
-998.8143735496602,80.87673233411634,-5.781257429741934,125917.01662974583,113272.59722164819,195407.5236189352,782,2003,1527,4
-998.910731909763,80.5752508968241,-7.0531064194925746,125934.4177485361,113216.35724117894,195575.9842253187,720,1966,1557,4
-998.9979235915424,80.22096647478347,-8.335595337586607,125939.20899587491,113158.84637025779,195690.59284826432,571,2005,1531,4
-999.0720357972419,79.80405709181714,-9.61838396751228,125934.70428339326,113098.85590630861,195751.76163258456,545,1995,1535,4
-999.131179069422,79.31387029265254,-10.888811096511956,125924.0875851056,113035.09804465903,195759.12044522783,525,2022,1526,4
-999.173409961722,78.7470460144839,-12.134486000524458,125910.09222396856,112966.05401407985,195712.14620622888,476,1996,1563,4
-999.1943891740722,78.11316432026959,-13.34667240353493,125894.45647398027,112890.02370750626,195611.09638344098,533,2017,1552,4
-999.1872658725912,77.4324292817994,-14.522204735343937,125877.49386562701,112805.41380937131,195457.65017490205,471,2032,1546,4
-999.1451773701198,76.72653852344797,-15.663724155700598,125857.95241305509,112711.12899140765,195255.00455478404,434,2063,1524,4
-999.0640761247095,76.00926811945364,-16.77907840267726,125833.13869392243,112606.84952038541,195007.54220691478,341,2064,1533,4
-998.9443992238159,75.28199028464877,-17.879081720881096,125799.39102925212,112493.03638701867,194720.21178627468,386,2094,1520,4
-998.791835402641,74.53366621687894,-18.97378068964874,125752.90026804156,112370.6664738682,194397.7713285099,363,2067,1549,4
-998.6172161956163,73.74357343822916,-20.069366015956327,125690.5197029627,112240.83663950366,194044.20175168384,365,2045,1565,4
-998.4351417800796,72.8859932392685,-21.166973497401244,125610.24111264151,112104.35302230807,193662.4724726617,363,2053,1566,4
-998.2618748345185,71.93485405563581,-22.263131984748927,125511.36660417201,111961.36580360972,193254.53613727324,289,2033,1596,4
-998.1135571128325,70.86698366293379,-23.351496593455668,125394.47573424834,111811.1983650881,192821.41310871666,331,2062,1584,4
-998.0052006131874,69.66456447093401,-24.42546610058125,125261.17778041353,111652.52965448875,192363.32662414198,258,2061,1576,4
-997.9504633793539,68.31697065355185,-25.48053429093976,125113.6859738303,111483.87380530042,191879.86825175487,328,2019,1607,4
-997.9620327070296,66.82153556332675,-26.515184937590355,124954.405945191,111304.08211789765,191370.1714669487,252,2004,1607,4
-998.0522513292481,65.18330517378024,-27.530291123891732,124785.68134602753,111112.64629290001,190833.09144841423,272,2049,1568,4
-998.2337160485673,63.41416638134061,-28.52779576440929,124609.6571599383,110909.80358549225,190267.40752624915,184,2066,1594,4
-998.5198728828989,61.531389341501594,-29.509289098571163,124428.22471302738,110696.51691278018,189672.02411379298,271,2047,1604,4
-998.9256327377922,59.55546096273648,-30.474603379695907,124243.05696647678,110474.37176800008,189046.1269210767,238,2050,1612,4
-999.4678306231505,57.50791562223497,-31.420786028600045,124055.695260566,110245.42479453443,188389.28248531144,148,2056,1594,4
-1000.1654582343999,55.409948803100065,-32.342174316344675,123867.6503272016,110011.99554342596,187701.4513818625,183,2045,1610,4
-1001.0395859428759,53.28168870241788,-33.231411551969884,123680.52191556999,109776.38517227731,186982.90302462294,177,2062,1611,4
-1002.1128898115043,51.141866987910625,-34.080321501349125,123496.11726941411,109540.61705746967,186234.11974732348,69,2014,1639,4
-1003.4090870829953,49.007697003657675,-34.88014718615178,123316.49264929381,109306.30991630188,185455.73793807463,85,2024,1643,4
-1004.9526100284014,46.894768002286185,-35.62165112182442,123143.86595346514,109074.67564278755,184648.46756033142,83,2041,1638,4
-1006.7685398855454,44.817005277422716,-36.29558758011804,122980.44642034447,108846.59698418148,183812.98077561762,87,2071,1642,4
-1008.8826350124574,42.7864920507499,-36.893562191616645,122828.26087840009,108622.77414736184,182949.75097295258,72,2077,1626,4
-1011.3210864211262,40.81285562755764,-37.40878544347032,122689.0263317114,108403.92561836129,182058.78688206722,32,2028,1678,4
-1014.1100755246467,38.90272401886182,-37.83587838459591,122564.12336235424,108190.98702413563,181139.37816771356,31,2020,1706,4
-1017.2759987149286,37.06013459337892,-38.16929022983296,122454.69468440284,107985.2532810152,180190.0007555434,7,2042,1703,4
-1020.8464066884306,35.28786652111767,-38.401119040255715,122361.7996651923,107788.45105603019,179208.34221099815,18,1992,1743,4
-1024.850514837753,33.58883920860893,-38.51980951408478,122286.53156376642,107602.73888641372,178191.38431988715,20,1911,1779,4
-1029.3187566452018,31.966906611585543,-38.51023844077862,122230.08885315171,107430.63208398092,177135.52896569387,0,1916,1799,4
-1034.2816550033049,30.426792354443563,-38.35449414038771,122193.84021210778,107274.88782148197,176036.72826980936,0,1928,1805,4
-1039.7684334606065,28.973405810808067,-38.03246947681365,122179.37866549511,107138.43612936676,174890.6073279746,7,1908,1823,4
-1045.8059098862084,27.611194188400763,-37.52193753354829,122188.5304766305,107024.41292872209,173692.58409175192,0,1874,1864,4
-1052.4177868983595,26.34386432058389,-36.79855603432061,122223.30417850497,106936.25757361081,172437.96832258694,0,1857,1864,4
-1059.6241325780136,25.174379530115438,-35.83634076444091,122285.80488787906,106877.79269149815,171122.0556233599,0,1721,1959,4
-1067.4410598332965,24.10505673548251,-34.60859976882656,122378.15257236543,106853.24022005961,169740.2428843109,0,1768,1947,4
-1075.8802922408804,23.13773637990979,-33.088878621423305,122502.41871510935,106867.18193666068,168288.15769120964,0,1775,1969,4
-1084.9481711757865,22.274185317153993,-31.25152076067671,122660.58367417062,106924.46991263643,166761.7644335233,0,1759,2008,4
-1094.6443829598152,21.516598342891363,-29.072169794710263,122854.51020092689,107030.08478262566,165157.40866548926,0,1718,2036,4
-1104.960900139767,20.867769543288535,-26.52871455115271,123085.92997850703,107188.98989636579,163471.83224092174,0,1691,2055,4
-1115.8814449858294,20.330906197519433,-23.602414239844435,123356.4670406352,107406.03624759745,161702.16553189553,0,1695,2073,4
-1127.3815439239618,19.909593376205308,-20.278713010938755,123667.70038831822,107685.91558757186,159845.85594253094,0,1677,2093,4
-1139.4293102569407,19.608510984787863,-16.547667511106884,124021.19408166937,108033.13858653995,157900.63207215033,0,1581,2141,4
-1151.9877769627528,19.43411255155906,-12.405757644378768,124418.41375289724,108452.00262163785,155864.57895403632,0,1561,2182,4
-1165.0176482230604,19.39246672228463,-7.862482868686702,124860.53602856037,108946.47924325916,153736.2257682452,0,1561,2220,4
-1178.4753097756816,19.48509032797541,-2.9486783650643837,125348.3304002715,109519.94965916022,151514.66422109547,0,1447,2281,4
-1192.3019164705474,19.708809881687174,2.283117536069399,125882.36095766016,110174.75165623007,149199.84101820612,0,1430,2329,4
-1206.4093776639381,20.059959104077343,7.765367748487631,126463.44357789087,110911.75373140139,146792.9390757163,0,1363,2339,4
-1220.6765616146563,20.535804007825153,13.418599885802832,127093.04710514056,111730.41105385545,144296.50832448943,0,1366,2376,4
-1234.958442408753,21.130719507841405,19.150280647345195,127773.51461628337,112629.2716864727,141714.21606262823,5,1258,2424,4
-1249.096768167352,21.831924622674677,24.85538195118555,128508.14384691541,113606.37593276863,139050.5361346399,1,1319,2403,4
-1262.925412732081,22.619409963090874,30.418163240978064,129301.23051477125,114659.36260469693,136310.61513640193,0,1273,2427,4
-1276.2743398805064,23.469805892987058,35.71444257913805,130158.2143702641,115785.47388523542,133500.23223569238,0,1187,2424,4
-1288.9754014279488,24.36114291113116,40.61590723613524,131085.81001926353,116981.49476755981,130625.84461569502,0,1126,2465,4
-1300.869389196553,25.277638569766022,44.995445697946565,132091.72025293572,118243.57964746936,127694.69024282518,0,1029,2454,4
-1311.8129570508368,26.21480964564374,48.73101117705441,133183.75522286876,119566.98470198989,124714.82028157466,0,1027,2423,4
-1321.681778217666,27.182462505558252,51.70604872026978,134368.72420617435,120945.74520783852,121695.17860298828,0,901,2505,4
-1330.36692932116,28.202202073406205,53.80673959533188,135651.58375250155,122372.41119734093,118645.88418304194,0,823,2553,4
-1337.7667772306108,29.29969853794274,54.91902005402306,137035.00225733145,123837.99997916425,115578.6318447675,0,801,2526,4
-1343.7798817483285,30.496018738885134,54.92857198049288,138519.29341196135,125332.21760853927,112507.09471178162,5,720,2606,4
-1348.302176413712,31.80131095734885,53.72595183923025,140102.6705342446,126844.02778315588,109447.15601954768,12,710,2578,4
-1351.2279139584791,33.210799112343985,51.216386526951794,141781.70747789534,128362.57838133881,106416.80099255918,0,666,2581,4
-1352.4534213237202,34.70375398773132,47.3299745594857,143551.74333808417,129878.0403402565,103435.83569775817,11,653,2609,4
-1351.8822138754042,36.24695539706639,42.02916576645099,145407.170262706,131381.9524188116,100525.62082615176,1,699,2554,4
-1349.4280633072758,37.80096254550358,35.314684980323875,147341.7733083416,132867.20580614838,97708.80938792578,2,677,2571,4
-1345.0142590475255,39.32574508823186,27.23125925427603,149348.9735670214,134327.8771445426,95009.23320369188,12,699,2571,4
-1338.571196924711,40.78410301937248,17.872023300018974,151421.68352871132,135758.95697080126,92452.0345604038,0,735,2531,4
-1330.0356452406793,42.14256230231671,7.379009328567005,153551.82789998373,137156.02055177736,90063.88588599631,0,794,2483,4
-1319.3536444086335,43.36948636610436,-4.063257319351279,155729.75879285365,138514.87978726593,87873.15075674161,0,885,2403,4
-1306.4867053179653,44.43074552473754,-16.240644706741506,157943.76594569278,139831.25087476033,85909.93809566817,0,1024,2275,4
-1291.418680005702,45.28595033340056,-28.921699055017868,160179.9064194962,141100.51905997685,84206.11683028105,0,1130,2195,4
-1274.1598180361993,45.89154866527041,-41.86352198473182,162422.61727718567,142317.76711155803,82795.2693506728,0,1345,2017,4
-1254.7461507673395,46.213579404122896,-54.813391008921805,164656.4337370907,143478.16126654984,81712.40450387151,0,1447,1933,4
-1233.2361291568209,46.24416010517067,-67.50958891643947,166868.18956790742,144577.36223243215,80993.4489467885,18,1498,1875,4
-1209.7068237679482,46.01633240497027,-79.68219223299657,169049.0004062061,145611.40619213594,80674.52183690312,22,1594,1779,4
-1184.2484699973875,45.61817562088228,-91.05359359979163,171195.95728684336,146575.97758128025,80790.87174471344,27,1679,1714,4
-1156.957382762867,45.20304730357444,-101.33815984912923,173313.03921127022,147465.5576214773,81375.76816300703,12,1787,1622,4
-1127.9293774499806,44.98599734158945,-110.24328080735268,175410.38093613205,148272.82482006465,82459.75181672913,0,1779,1627,4
-1097.2550560926256,45.22311018132916,-117.47612708248069,177501.80899354277,148988.21861227328,84070.27548394864,13,1819,1591,4
-1065.0201651276216,46.183410389135574,-122.7561520145792,179601.57961330158,149599.4948627692,86231.65511369622,13,1861,1549,4
-1031.3144993852402,48.1205490602368,-125.83231479544563,181721.040553652,150091.36634284392,88965.13444811419,0,1916,1498,4
-996.2482352299445,51.24365421229626,-126.50461444720561,183865.38693538608,150445.70691313627,92288.76524522404,0,1938,1491,4
-959.9694065731918,55.693331663371936,-124.64318533572269,186031.2973656397,150642.76148952436,96216.96570838608,0,1957,1470,4
-922.6755903977037,61.53084676137636,-120.19823438538967,188206.17503434318,150663.01879859268,100759.78606201508,0,2010,1418,4
-884.6181489598299,68.7386239347627,-113.20182402693135,190368.93348941495,150489.32452531173,105922.06523203998,0,2016,1421,4
-846.1016901463125,77.22608011542646,-103.76394785646109,192491.96165883704,150109.21386519857,111702.66997620199,0,2014,1418,4
-807.4782771930669,86.83823818366956,-92.0616073696539,194543.35457350747,149516.8494928735,118093.83576429995,0,2012,1417,4
-769.1344087439807,97.36695149210291,-78.32062640760152,196488.91985191507,148713.75045776743,125080.78112037091,0,2011,1419,4
-731.4767329423705,108.56196011183825,-62.7967673281806,198294.37841516235,147708.3533414077,132641.83096866653,0,2011,1423,4
-694.9226662054396,120.14060394967056,-45.759891183574084,199927.49464962303,146514.95843067428,140748.74532434807,0,2013,1417,4
-659.8935011786369,131.79964569634149,-27.47745406114257,201359.5945702248,145152.25883205084,149367.04926732715,0,2012,1416,4
-626.8079338656316,143.22934320921243,-8.200188613440382,202566.6148360898,143641.43382419524,158456.56068854194,0,2008,1421,4
-596.0738453427626,154.12927250500584,11.843069989300181,203529.77531801115,142004.35355317773,167971.83407624825,0,2010,1416,4
-568.0749693455306,164.22675586973773,32.44332768270832,204236.08012012826,140262.29000478287,177862.64416709167,0,2012,1419,4
-543.1569918220002,173.29234814920122,53.40890102275986,204679.04753230445,138434.86307088842,188075.20625191147,0,2011,1419,4
-521.6186913843455,181.14719011455543,74.56708966269456,204859.38055025562,136539.27165931143,198553.62800144166,0,2011,1419,4
-503.7075656163403,187.66427198219077,95.76981153644606,204784.81990749252,134590.01616319083,209241.02905505287,0,2010,1421,4
-489.61950486068434,192.76598805579422,116.89741362577217,204468.98268971327,132598.92251087702,220080.74655849248,0,2008,1420,4
-479.501496616047,196.4176618858219,137.85631194778486,203929.8016877532,130575.31611462525,231017.30177153542,3,2011,1418,4
-473.4542525842586,198.61736717261957,158.57205296883666,203188.15285530107,128526.31723501142,241996.87015721638,0,2010,1416,4
-471.5333610888368,199.38582817285308,178.9817263490775,202266.75307065598,126457.16729490277,252967.8934089509,0,2010,1417,4
-473.7489431691679,198.7602700570518,199.02862406530937,201189.25304311735,124371.49535598482,263881.6170392504,0,2010,1418,4
-480.06402806576216,196.79182720369764,218.6599899771329,199979.46332402225,122271.50406102372,274692.02413445344,0,2010,1417,4
-490.39350694882535,193.54452040125997,237.82658703543828,198660.78042334144,120158.17110232398,285355.47675437137,0,2008,1421,4
-504.6065645958833,189.09437305228673,256.48320991261477,197255.84660233257,118031.53304814894,295830.6198991046,0,2009,1419,4
-522.5319643938217,183.52774241906394,274.5909032394791,195786.2831672725,115890.96519302994,306078.7628700268,0,2011,1417,4
-543.9619301573034,176.93965304844494,292.11979712888365,194272.46145111264,113735.37132667766,316064.187892263,0,2011,1416,4
-568.6542727922927,169.43311811046053,309.0496495771097,192733.25150612832,111563.20576767735,325754.08209948585,0,2011,1417,4
-596.3361395404279,161.11859835160126,325.36705786719386,191185.5894128334,109372.29077120287,335118.6002364336,0,2010,1419,4
-626.709062432443,152.11222452985922,341.06038782447797,189644.02000542294,107159.64309642582,344130.9848167552,0,2010,1416,4
-659.4543598008123,142.53132741149565,356.1140843737171,188120.424147161,104921.54143214604,352767.51839390886,0,2010,1417,4
-694.2402260057381,132.48718399636476,370.50351781399297,186623.86385260426,102653.82145648578,361007.6219127223,0,2008,1419,4
-730.7283813454624,122.07869069634896,384.1912532625019,185160.54894013586,100352.3315559896,368833.89831337257,0,2010,1417,4
-768.5784381151554,111.3903005421807,397.12646252735084,183734.03846235317,98013.5118531106,376231.8904275372,0,2010,1419,4
-807.4519290392018,100.49350731225952,409.2481290851891,182345.63586901609,95635.01436756589,383189.8916839514,0,2010,1419,4
-847.0156153848459,89.44962264196086,420.4894729429105,180994.83616891672,93216.25061247872,389698.77014169074,0,2009,1416,4
-886.9446288477234,78.3114207733315,430.78127857460004,179679.74288635157,90758.73820264907,395751.7006358963,2,2010,1417,4
-926.9283831517475,67.12215163672826,440.0545281155472,178397.45557185315,88266.20530397167,401344.07933342236,0,2005,1423,4
-966.6769279749378,55.91291511964025,448.24228742023627,177144.45373486404,85744.57722427526,406473.5060473372,0,2008,1418,4
-1005.9251737333417,44.699538854747985,455.28063198031396,175917.06163706904,83201.84540605656,411139.6213009968,0,2010,1421,4
-1044.4365884263748,33.47924772248222,461.1099790661669,174712.08535020534,80647.69292941892,415343.9377279976,0,2009,1417,4
-1082.0048699929766,22.22880884471913,465.67724126342273,173527.54011698454,78093.03895610645,419089.5928079568,0,2008,1418,4
-1118.4514223586905,10.906013708871418,468.93823827879476,172363.3475860353,75549.60678676402,422380.87215303176,0,2009,1419,4
-1153.6209287137503,-0.5457788949519143,470.8603379660446,171221.97866531546,73029.35708839072,425222.6541890376,0,2010,1418,4
-1187.3769483721474,-12.191824478529954,471.4245994465115,170108.9203844946,70543.94797088775,427619.9006517922,0,2008,1418,4
-1219.5977182130214,-24.100400266782636,470.6263407064445,169032.7185606289,68104.44410240116,429577.20510826557,0,2005,1419,4
-1250.172804198976,-36.337906982814296,468.4741614422153,168004.51939498723,65721.17375923385,431098.4473654251,0,2005,1419,4
-1279.0005356996865,-48.96507930272843,464.9882790534196,167037.36650239414,63403.754629164185,432186.5508786858,0,2009,1417,4
-1305.9863536494054,-62.034987307049306,460.19892581346284,166145.39959389213,61161.39380105333,432843.31132294633,0,2008,1418,4
-1331.0427103125319,-75.59286968306965,454.1451377433225,165342.87583670634,59003.35513241586,433069.31420634844,0,2008,1416,3
-1354.0892289588676,-89.67681004955563,446.8742635270657,164643.2295434183,56939.43210063671,432863.92919601867,0,2008,1419,3
-1375.052218454628,-104.31860404697471,438.441890637858,164058.338287782,54980.28168791656,432225.3461300809,0,2008,1418,3
-1393.8645105418977,-119.54488926723718,428.9112548109862,163597.80655017274,53137.52905069115,431150.6644405716,0,2004,1423,3
-1410.4653009238955,-135.37712541620985,418.352187957319,163268.31161575872,51423.725328028275,429636.0611856207,0,2008,1421,3
-1424.799365966025,-151.82804943870573,406.83997931900154,163073.17695998203,49852.21690892584,427677.0546937422,0,2010,1418,3
-1436.816364264659,-168.8946415511208,394.45405470719083,163012.08834677143,48436.89375070532,425268.8674356028,0,2009,1419,3
-1446.4707169330202,-186.55061236787805,381.2771138182155,163080.8934283746,47191.93714753991,422406.86011423817,0,2010,1416,3
-1453.723188552768,-204.7421074906969,367.39485596889733,163271.4914686235,46131.63710942399,419086.9572246462,0,2008,1421,3
-1458.5451288890342,-223.3883626241995,352.8952591252218,163571.75515961117,45270.164950513805,415305.98253785947,0,2010,1423,3
-1460.9232814997306,-242.3849912786507,337.8674073323226,163965.48970248524,44621.307756153765,411061.9230446514,0,1994,1430,3
-1460.8633040147922,-261.60614676542275,322.39975411496874,164432.5901137351,44198.155121578544,406354.0711121219,0,1997,1429,3
-1458.3931538627337,-280.90473720793045,306.57705325948893,164949.52153886738,44012.622895759145,401182.9587196934,0,1986,1434,3
-1453.5673686985112,-300.11208601414626,290.47743774610245,165489.97478797653,44074.91909332327,395550.3270613862,0,1996,1431,3
-1446.472797355894,-319.04028232565753,274.1713559627384,166025.5790876283,44393.10963265431,389459.3077690581,0,1984,1435,3
-1437.2359430646748,-337.4898276991797,257.7216524344477,166526.7312781173,44972.773205603175,382914.6465761193,0,1972,1449,3
-1426.0291015804721,-355.2588699846313,241.18457715911217,166963.41553837835,45816.78539686692,375923.0302687765,0,1985,1439,3
-1413.0711565465633,-372.14859070358756,224.61332985345274,167306.01563451407,46925.318849699885,368493.6541247622,0,1984,1445,3
-1398.6223525027758,-387.9639050202375,208.06514412217643,167526.36054105873,48295.991858145295,360638.9391998992,0,1968,1451,3
-1382.9757168554245,-402.5098648883665,191.6093156314557,167598.81431804952,49923.90224405301,352375.43032225507,0,1950,1469,3
-1366.4432954612316,-415.5833389880017,175.32957457541988,167501.10564102497,51801.21857937029,343724.73029154015,0,1953,1465,3
-1349.3333652916076,-426.961792622167,159.31677112382414,167214.98354059077,53916.248077390475,334714.09634482523,0,1941,1476,3
-1331.926806405765,-436.395183058343,143.65681003094474,166726.7542946467,56252.40835450518,325376.80242102087,0,1952,1471,3
-1314.4653145189816,-443.6091048281638,128.42092493805515,166027.64934717107,58787.90901381678,315752.34019855235,0,1957,1467,3
-1297.15235915599,-448.32155422434704,113.65957358655913,165114.04601015005,61496.59787174258,305886.19734366867,0,1960,1459,3
-1280.160650545409,-450.2648154391227,99.4000598239285,163987.5177018813,64349.534553883816,295829.518561922,0,1962,1459,3
-1263.6414254510003,-449.2037978314644,85.64998705560483,162654.6600055976,67316.91090836578,285638.7053171455,0,1965,1457,3
-1247.732970348377,-444.94963467686995,72.40688499651557,161126.76827034858,70370.34954548867,275374.40459742845,0,1968,1459,3
-1232.5660861720653,-437.3672535610033,59.67143668511682,159419.57707058714,73484.87387134969,265100.271677807,0,1966,1449,3
-1218.2640814728672,-426.3753917375628,47.46221644082574,157552.98006704036,76639.72741967526,254881.75784685253,0,1970,1446,3
-1204.9379353380675,-411.94256610043385,35.8300761939507,155550.38731743264,79818.15421390609,244784.3605220463,0,1974,1451,3
-1192.6809684667587,-394.084383948439,24.86627083309856,153437.7474657052,83006.45879075865,234871.91073905147,0,1971,1446,3
-1181.565288441902,-372.8646514653169,14.697282431651805,151242.25136003856,86192.46763835846,225205.44726894973,0,1973,1449,3
-1171.638757951522,-348.39956692188804,5.467395351609039,148990.58645479227,89363.70510533298,215842.06712251063,0,1977,1443,3
-1162.922537775343,-320.8632708991954,-2.6803868069365278,146707.26194772203,92505.93801379712,206833.95291186502,0,1988,1438,3
-1155.4094756829443,-290.4924655811078,-9.617882085803208,144413.38664000834,95602.73336789377,198227.95115627671,0,1977,1480,3
-1149.0616500731874,-257.58825802444295,-15.24124405855375,142125.55871154653,98636.08881566924,190065.20205481903,0,1978,1446,3
-1143.80692288878,-222.51608685004464,-19.476515329708192,139854.8995431043,101587.55584100046,182380.9216456354,0,1973,1446,3
-1139.5359293604333,-185.70568936085354,-22.279434995636528,137606.48229298007,104439.39355382831,175204.74889066222,0,1988,1441,3
-1136.1005511832932,-147.65191438147218,-23.632742288464833,135378.98796124355,107175.69097390579,168561.40927980948,0,1989,1432,3
-1133.3167348399854,-108.91810936726479,-23.54972813313417,133164.42131253163,109783.3405195427,162471.32917740938,87,1996,1428,3
-1130.974136386087,-70.14524194587314,-22.091414382214694,130947.95255513885,112252.59880642247,156951.06034980816,506,2011,1424,3
-1128.850167810619,-32.06359531045109,-19.39162624200225,128708.23908941474,114576.93642181704,152013.632413211,912,2011,1416,3
-1126.725784271226,4.515337524308434,-15.674707292635205,126419.15470563465,116752.4218386203,147668.84864214616,1435,2013,1415,3
-1124.4015320295719,38.751267809255715,-11.257546362723975,124053.60701519274,118777.65655415418,143923.26264089075,1739,2016,1418,3
-1121.7090962169189,69.86483944812696,-6.535332492144684,121588.79341848302,120654.99818046032,140779.7322907665,1719,2013,1416,3
-1118.5140925659734,97.2505577264848,-1.9407168966556,119012.7533742923,122393.1857419154,138236.04190082743,1893,2010,1421,3
-1114.7119193846058,120.5879317200079,2.1383039749839505,116332.1614990608,124010.22333912895,136282.15659241335,1951,2009,1420,3
-1110.225802420635,139.88271268620778,5.459671889668969,113578.1234633548,125533.89429091511,134897.61132213703,1888,2009,1418,3
-1105.016372850769,155.41269599623044,7.987840346378013,110806.26445066476,126998.65044386518,134050.98288198348,2028,2012,1417,0
-1099.1023520291792,167.6233673069459,9.871125032522238,108089.7525587388,128439.06777251119,133701.57439495766,2093,2014,1417,0
-1092.5820677033823,177.0114317494333,11.35430246039349,105506.91748424253,129880.59488533408,133802.31204517838,2090,2016,1421,0
-1085.639931334736,184.0333467214998,12.690626874368316,103129.54772217755,131331.2076750345,134302.68746559002,2061,2021,1416,0
-1078.5217765218633,189.07198917029663,14.092112767211907,101016.41187671626,132778.11346222696,135151.27953612915,2024,2020,1417,0
-1071.4792358657653,192.4514698869656,15.70736433975766,99210.76586053264,134189.81948709316,136297.86260679222,2020,2013,1420,0
-1064.7119593859582,194.46669002020298,17.61220951933711,97739.95688433101,135521.2536962973,137694.54878049123,2028,2025,1418,0
-1058.3386051798193,195.40218474216002,19.811715421529584,96616.68688515802,136720.83043317226,139295.91758021564,2045,2036,1417,0
-1052.4001504858616,195.53396374841708,22.25216312201767,95841.0835454777,137739.31671020435,141059.03014481228,2063,2038,1419,0
-1046.880945295226,195.12139614811312,24.837249570993336,95402.36039953252,138537.99190749537,142943.83206349175,2053,2054,1418,0
-1041.7343912318734,194.3949050039728,27.445085864099998,95279.63248566163,139093.8834305824,144913.98223733107,2083,2043,1418,0
-1036.9072353687632,193.54118441824653,29.94801878471591,95442.70049415699,139402.43990267173,146938.06280276307,2132,2044,1422,0
-1032.358483532094,192.69026906568357,32.23323794618258,95853.64950509442,139477.50463280978,148990.65050960754,2193,2067,1417,0
-1028.071510024761,191.91163336801068,34.21958841047813,96469.07673219801,139348.48516645283,151052.58251546085,2232,2069,1418,0
-1024.058460910959,191.22337602616497,35.867532048522285,97242.95279522061,139055.09220083733,153110.19863172635,2216,2080,1416,0
-1020.3524424036367,190.61002943435165,37.177226915300466,98130.51556597183,138639.97022753736,155153.7764640346,2251,2064,1418,0
-1016.9908929849078,190.03764907888694,38.176875295694046,99092.1437549604,138141.70862442665,157175.77730262515,2312,2074,1419,0
-1014.0005091703803,189.46157935932422,38.909561487918005,100095.7553274472,137590.67712529065,159169.44469184813,2367,2083,1419,0
-1011.3882836100165,188.8324044852018,39.420475701662866,101117.71543044041,137007.25578332637,161127.8462153874,2386,2099,1422,0
-1009.1392531992018,188.10346699660766,39.74525251671018,102142.65758135916,136401.6238583267,163043.38873621076,2393,2108,1424,0
-1007.2203668985535,187.23871866153326,39.90276231692396,103162.28715158314,135775.2763167081,164907.93936925137,2392,2109,1420,0
-1005.587330018421,186.21934657938291,39.89321901864983,104173.43224767123,135124.12856834102,166713.4713607996,2399,2109,1425,0
-1004.1907096221962,185.04695919696076,39.70091749767522,105176.03392122255,134442.0297874492,168452.78414766438,2378,2113,1421,0
-1002.9801853422662,183.7413679801794,39.30176102434405,106171.45484914478,133723.76953893,170120.00001691593,2352,2108,1419,0
-1001.908240930507,182.33363400366898,38.67460398573165,107160.93718044556,132967.5997907118,171710.94790898342,2309,2112,1420,0
-1000.933547899372,180.85793700315097,37.81186213151577,108144.37784948632,132176.84066532995,173223.4164246525,2285,2115,1424,0
-1000.023354925191,179.3450992332564,36.724828639121114,109119.80775468975,131359.77861757064,174657.14502319513,2228,2113,1423,0
-999.1548648354965,177.81770395361164,35.44285364822753,110083.52953749226,130528.01153784852,176013.61324590514,2195,2117,1424,0
-998.31552572388,176.28697649990053,34.007937869903465,111030.62727614609,129694.32271818892,177295.71212957046,2038,2120,1419,0
-997.5020268461936,174.7525479767745,32.466233949476994,111955.77775813706,128870.82175990296,178507.31031310873,2012,2123,1418,0
-996.7183903283194,173.20530000420936,30.857826397262837,112854.35880848565,128067.36862624127,179652.73713023023,1933,2109,1420,0
-995.9737486438696,171.6321925262933,29.208449438694842,113723.43751378621,127290.57371383738,180736.26471579424,1793,2116,1419,0
-995.2793386799284,170.02197835316818,27.526910326707224,114562.23145992457,126543.792837352,181761.68039934267,1679,2115,1419,0
-994.6445099458713,168.37124434719354,25.808159330572817,115372.10633573699,125827.90206268376,182731.99818371356,1715,2109,1423,0
-994.0738601522916,166.68892016929013,24.03895186270276,116156.22978043275,125142.27184635492,183649.33470072842,1650,2125,1423,0
-993.567517958919,164.99692542911637,22.20314460711382,116918.8112970264,124485.5750482339,184514.9683697996,1591,2152,1423,0
-993.1235410479742,163.32706035611184,20.285757739457477,117663.99489289153,123856.38645467642,185329.55163330422,1450,2167,1423,0
-992.7399391854299,161.7163177726194,18.27557867591658,118394.83706748567,123253.53830122422,186093.33500302123,1436,2194,1429,0
-992.4153987401594,160.20194879786743,16.165868497138888,119112.7369062635,122676.16132313391,186806.32180038333,1208,2199,1432,0
-992.1493649914223,158.81666312157046,13.95376241809362,119817.32119461184,122123.49383155083,187468.4261870237,1200,2192,1430,0
-991.9419778304039,157.58549593105877,11.639597450712266,120506.65942708816,121594.66248340899,188079.62549843488,1021,2184,1431,0
-991.793700332921,156.52515145146447,9.22689086360583,121177.61948467584,121088.59645045883,188640.0106944689,1028,2186,1431,0
-991.704626825732,155.64407744705716,6.722929206830688,121826.25129902926,120604.08246641947,189149.75441815812,1013,2200,1432,0
-991.6741130157199,154.9417810982815,4.1395520763698705,122448.2198437933,120139.87102590653,189609.08895279735,901,2218,1599,0
-991.7011833723661,154.40816098645382,1.4935265414123422,123039.17616016814,119694.76497168436,190018.31963934287,832,2223,1601,0
-991.7852205247357,154.0243279752962,-1.194146323431239,123594.99320637494,119267.66588141499,190377.85931150074,751,2227,1606,0
-991.9260532408549,153.76494383986127,-3.8997151831491625,124111.99222109458,118857.58071428254,190688.27311676834,643,2271,1603,0
-992.1231887520315,153.60080963706568,-6.597738552262958,124587.17143829382,118463.62421442704,190950.29951914996,619,2286,1602,0
-992.3748455227532,153.50122702225008,-9.261645919334974,125018.34625352018,118085.03993508848,191164.83702518424,601,2279,1607,0
-992.6775631434873,153.43652674732198,-11.864996752512479,125404.20707893932,117721.21384494766,191332.93137743356,567,2271,1605,0
-993.0265102562087,153.38022176252758,-14.383509879535934,125744.32138731601,117371.65874870328,191455.77453749772,545,2295,1601,0
-993.4159423382036,153.30976021790366,-16.79694495898783,126039.09442924388,117035.95992245134,191534.70356086706,416,2304,1600,0
-993.8391677356359,153.20579024556233,-19.090533132462646,126289.71427699068,116713.68931661935,191571.1985193745,430,2301,1600,1
-994.2880097935922,153.05075806244545,-21.255827166054708,126498.07653555599,116404.34838656332,191566.88922561164,473,2343,1605,1
-994.7524359426776,152.8279414541872,-23.290733180691635,126666.66582307096,116107.3891150162,191523.59210234447,365,2344,1636,1
-995.2208776412268,152.52159187270942,-25.198806101591614,126798.40556874352,115822.3048031606,191443.37909295788,382,2381,1605,1
-995.6810424770846,152.11796112869612,-26.987889675101002,126896.53162504314,115548.76425774451,191328.62762555564,346,2398,1612,1
-996.1208995227615,151.60641269934928,-28.66789962636969,126964.5068732996,115286.76276057363,191181.99060365296,364,2412,1647,1
-996.5298404714457,150.98005820717856,-30.247989488054923,127005.92260260551,115036.74816006992,191006.29421761184,274,2404,1634,1
-996.8998449705435,150.23553304588987,-31.734556504351296,127024.36148548132,114799.66441294526,190804.4454724054,208,2448,1642,1
-997.2266523002224,149.37074795060428,-33.13126395290158,127023.2770604673,114576.84149549768,190579.36405770428,173,2460,1654,1
-997.5114095478024,148.3798276183387,-34.43999413393909,127005.97633320618,114369.71020818803,190333.8357188536,201,2461,1657,1
-997.7620740954611,147.24815581771398,-35.660013501286656,126975.78203010978,114179.41273293878,190070.18077211856,157,2467,1655,1
-997.9919193236138,145.9534192253253,-36.78583156720998,126936.2375220994,114006.35691312842,189789.802412939,122,2458,1665,1
-998.2137229230045,144.47467450250463,-37.810394109269204,126890.88185984289,113849.81465215584,189493.05056964426,134,2476,1680,1
-998.4331698637793,142.80339132399067,-38.73426749497299,126842.52194728251,113707.8957774932,189179.76756318047,134,2496,1675,1
-998.6470371422298,140.94757205248214,-39.56972989890988,126792.66514735423,113578.2056395905,188850.2313859748,139,2526,1671,1
-998.8467215519738,138.92583018492329,-40.33598022363439,126741.46050735834,113458.96072073469,188505.90921483043,150,2564,1658,1
-999.0231749016649,136.75671450670285,-41.05317373977504,126687.89910805182,113349.84877852886,188149.63353320738,115,2576,1687,1
-999.1709721384417,134.4508801434125,-41.73845378142055,126630.1904009838,113252.14882919179,187785.11404726972,59,2599,1678,1
-999.2912996814104,132.00898166275636,-42.40239589343217,126566.3736411352,113168.20393314389,187416.03748794188,22,2613,1688,1
-999.3928607534642,129.4239474317023,-43.04667776977209,126494.96935745065,113100.63738323763,187045.26275903638,16,2627,1672,1
-999.4897066940457,126.68576061153892,-43.66459284041353,126415.44077446435,113051.56829962299,186674.4244211075,10,2623,1681,1
-999.5970100619724,123.78714130763143,-44.24439370508662,126328.42024331106,113021.8853791324,186303.84741809795,0,2639,1698,1
-999.7273473486863,120.72794926756657,-44.77377968212343,126235.68440007936,113010.7834909795,185932.62397197168,0,2663,1683,1
-999.8890146117172,117.516608017927,-45.24412483290061,126139.81968360538,113015.84459502238,185558.82729211752,0,2649,1695,1
-1000.0859451186503,114.16919291157205,-45.65447541860997,126043.61733398122,113033.64666651475,185179.83976688967,0,2655,1686,1
-1000.3183838283247,110.70798867542547,-46.01422044352959,125949.47044500338,113060.57942143052,184792.7221968239,0,2670,1693,1
-1000.5838090739932,107.16031641289396,-46.34181127610564,125859.03995022272,113093.63776050645,184394.60550026514,0,2672,1697,1
-1000.8780477477314,103.55738444031218,-46.65919378930323,125773.1730143011,113131.1448902693,183983.1375685821,0,2669,1705,1
-1001.1970529651853,99.93244769708808,-46.985350059440464,125691.95683838202,113173.181863641,183556.8848432492,0,2657,1718,1
-1001.5392913646116,96.317814070907,-47.332038099771886,125614.85533419947,113221.51091357872,183115.56608572206,0,2673,1723,1
-1001.9075491743293,92.74177521344976,-47.701900055139205,125540.89536596288,113279.12455680313,182660.13737785828,1,2668,1733,1
-1002.3091932920577,89.22683415543807,-48.08876250578319,125468.90525205343,113349.56991647379,182192.71703813304,2,2679,1734,1
-1002.7551946611713,85.78907658960243,-48.48006134529953,125397.81201488966,113436.11975946419,181716.30598482612,0,2706,1743,1
-1003.258849587267,82.43841332115065,-48.859879521151385,125326.89740692805,113541.09464890289,181234.41886969848,0,2704,1768,1
-1003.8348259890089,79.18023929692772,-49.21146207609621,125255.87329819718,113665.63965117492,180750.7310320948,0,2694,1775,1
-1004.4986255490302,76.01842658841554,-49.51946599083856,125184.75865882022,113809.89817431287,180268.7229674306,0,2682,1785,1
-1005.2663381942131,72.95823078989658,-49.77177413986053,125113.6594200298,113973.33353470058,179791.39604828658,0,2681,1802,1
-1006.1544580257082,70.00763707904572,-49.96023385824401,125042.52763498022,114155.06241209903,179321.1288392129,0,2704,1802,1
-1007.1795564612362,67.1769170845478,-50.08036279799762,124970.91808236369,114354.19088768351,178859.6008984548,0,2703,1804,1
-1008.3578760285875,64.4772249155035,-50.13055934697578,124897.81587267263,114570.08014997418,178407.74597350653,0,2676,1830,1
-1009.70524292573,61.918792572888506,-50.11115333962566,124821.64577749117,114802.46064978134,177965.72365971576,0,2684,1855,1
-1011.2378035983057,59.50872254714622,-50.02325734214501,124740.48403444859,115051.43311668515,177532.84910852025,0,2687,1836,1
-1012.9734479918638,57.24917888959823,-49.86773986160659,124652.37617856114,115317.40542556116,177107.48640813588,0,2655,1845,1
-1014.933246498737,55.13704642066553,-49.645003107214656,124555.6844210262,115600.95136207182,176686.9621423002,0,2693,1859,1
-1017.1423209562273,53.164843449743536,-49.35547142978498,124449.45920033306,115902.58525749885,176267.52034428142,0,2708,1864,1
-1019.6297836302531,51.322473567388094,-49.00029496783277,124333.74394153507,116222.53180810182,175844.34332009475,0,2712,1900,1
-1022.4282341430926,49.59989824905618,-48.58236204569098,124209.70389984763,116560.58597696514,175411.65081701518,0,2795,1850,1
-1025.5731160731075,47.989687930966426,-48.10759319410948,124079.62313673434,116916.06927744014,174962.83356371365,0,2746,1867,1
-1029.1007214481535,46.48778001228451,-47.585123748295246,123946.86313104922,117287.90981043037,174490.54687422264,4,2761,1856,1
-1033.0448223670635,45.09273981626544,-47.02439240306375,123815.832689561,117674.91461519079,173986.71183718467,0,2735,1889,1
-1037.43473368659,43.8046366124503,-46.42999087262158,123691.95680642387,118076.1423351678,173442.45565121144,0,2722,1910,1
-1042.2970756023963,42.62329415471491,-45.797606643064036,123581.5107679001,118491.20140124674,172848.06058338625,0,2770,1913,1
-1047.6594625216444,41.54663882635258,-45.112102484411984,123491.24257210545,118920.40606824166,172192.94316314097,0,2761,1949,1
-1053.5522967261104,40.57097967825469,-44.346970770801285,123427.95868527655,119364.7610668088,171465.68522744664,0,2742,1952,1
-1060.0078574758168,39.692993188859695,-43.46552736895994,123398.24568916432,119825.76156499382,170654.1573287044,0,2731,1951,1
-1067.0587274081515,38.911860387531334,-42.423770320697244,123408.29755501084,120305.07901132895,169745.72909286252,0,2743,1962,1
-1074.7367677386505,38.23071341927795,-41.173545357902114,123463.78976006643,120804.27079758776,168727.51256841916,0,2708,1976,1
-1083.0723810337938,37.657217535336855,-39.665719426366564,123569.77917361514,121324.62738105854,167586.58338538377,0,2694,2034,1
-1092.0935594770062,37.20327438901111,-37.85384075149342,123730.61621793738,121867.15984241491,166310.16429440782,1,2657,2079,1
-1101.8246720554737,36.88419309859755,-35.6975726594526,123949.89338533663,122432.63836381117,164885.8039296401,0,2642,2068,1
-1112.285426585414,36.718384220088495,-33.165388627992805,124230.46371095162,123021.60114915171,163301.58546870545,0,2543,2131,1
-1123.4899880797939,36.728215977597365,-30.236925152403114,124574.53275399441,123634.3183723791,161546.36748644747,6,2544,2131,1
-1135.4454862507387,36.94134595979353,-26.904905215878866,124983.78389334647,124270.71669183498,159610.05148338334,0,2503,2182,1
-1148.1496013625592,37.39155945695283,-23.176596357967238,125459.51575477334,124930.27790926286,157483.86475139944,0,2447,2197,1
-1161.5879233106716,38.119054875105356,-19.07499216701254,126002.80182323416,125611.94411715718,155160.65681374384,0,2430,2237,1
-1175.7321824714916,39.17031622117447,-14.639394216191814,126614.61615980556,126314.05985836033,152635.23353649504,0,2314,2253,1
-1190.539569797518,40.59697501751156,-9.925496554692382,127295.86932846857,127034.38079552165,149904.72142440843,0,2387,2272,1
-1205.95232226801,42.45323680207089,-5.005352560751192,128047.39966333294,127770.1410643955,146968.9280328199,1,2248,2347,1
-1221.8974490354449,44.791620457583996,0.033738273610660285,128870.0118810963,128518.16305026943,143830.60542776328,11,2178,2407,1
-1238.2866106698182,47.656932278411,5.092175246668575,129764.59178516698,129275.0249344913,140495.50635511283,0,2109,2414,1
-1255.0151363197708,51.08027146762945,10.061526073015209,130732.22118453607,130037.23374008015,136972.31292786737,0,2058,2436,1
-1271.960345079151,55.07503944154946,14.828006698911508,131774.26540799448,130801.35644980741,133272.47493506165,0,2022,2266,1
-1288.9805462847216,59.63470573477936,19.27690450228336,132892.47092501938,131564.14527358479,129409.8818709301,0,1984,2304,1
-1305.9148120670097,64.7316585054293,23.29719230778982,134088.98082588142,132322.626969334,125400.58528450235,0,1893,2316,1
-1322.5836194654466,70.31740891002534,26.785540663702857,135366.1113536595,133074.10927113608,121262.68085117693,0,1866,2327,1
-1338.7909855543035,76.324222177563,29.650380939676293,136725.883657936,133816.14043029898,117016.12749552858,0,1834,2327,1
-1354.3271833000767,82.66726186484149,31.81518415074556,138169.43161387087,134546.41655990665,112682.58193396438,0,1799,2319,1
-1368.9711962713895,89.24692688752953,33.21911392406288,139696.29588640798,135262.57198750644,108285.34482531602,20,1682,2317,1
-1382.4924749158765,95.9520016806872,33.81481557053335,141303.54137923275,135961.8650868085,103849.22060927888,7,1657,2328,1
-1394.650435071365,102.66268998157341,33.56494762769208,142984.87478741506,136640.8924496555,99400.40982310301,20,1592,2314,1
-1405.1919623464612,109.25168149844131,32.439407559036006,144730.0213935835,137295.51909140844,94966.6579878031,11,1522,2331,1
-1413.8495311605466,115.58283522759484,30.41386233761801,146524.35573498614,137921.11624622985,90577.56484341918,19,1411,2310,1
-1420.342000968636,121.50844394612062,27.46947003274079,148348.67802962463,138512.99106195112,86265.0052781948,26,1348,2283,1
-1424.380824365794,126.86659533386775,23.594614271988334,150179.23531826196,139066.92994022157,82063.60146797106,29,1373,2242,1
-1425.683092139014,131.4795586005326,18.789686257192795,151988.11091498495,139579.8817844891,78011.07454901078,31,1386,2179,1
-1423.9872854250448,135.15505215597116,13.073524022614526,153743.80648278806,140050.58132170557,74148.51099601007,16,1516,2114,1
-1419.0687281751577,137.6968428137818,6.488522775608918,155412.11448898376,140479.92748186862,70520.485822684,19,1570,2020,1
-1410.755115585933,138.92821068617647,-0.8966994153500716,156957.75660034353,140871.2456784778,67174.80222953108,29,1762,1966,1
-1398.9385235901452,138.71823859084355,-8.98557717753574,158346.67101510352,141230.49298165934,64161.986925982914,15,1874,1882,1
-1383.5801463996595,136.99860445326985,-17.649723645535822,159548.9388406294,141566.252605942,61534.65366376887,21,1909,1822,1
-1364.7095786193372,133.76968469647983,-26.72169598737601,160542.62182383557,141889.44239166914,59346.5390526603,6,2020,1748,1
-1342.4216624820256,129.10005236325864,-35.98655751404475,161317.4390113163,142212.7836003995,57651.41834901947,22,1949,1681,1
-1316.8684443121817,123.1233727713422,-45.17460254660084,161877.05580860912,142549.91445857714,56502.016775538665,0,1908,1652,1
-1288.2418297031074,116.03655129936688,-53.958075434614294,162240.09411980837,142914.05751636394,55948.587033260694,15,1944,1626,1
-1256.7523018125107,108.09929229444413,-61.956078548966374,162440.0680768306,143316.57212520656,56037.383533612876,0,1956,1575,1
-1222.6127941446798,99.62865457777794,-68.75225047590726,162523.9319137045,143765.40665341888,56809.47090584477,0,1935,1543,1
-1186.0299503164033,90.98347468528259,-73.9239687557439,162549.24513187355,144262.7211036521,58299.793396415145,3,1903,1533,2
-1147.2039309971767,82.54280862353478,-77.07191782112037,162580.65505517958,144801.5830181071,60536.42845612535,1,1919,1515,2
-1106.33869172692,74.67942874056268,-77.84466082845887,162685.49727826388,145362.83389965323,63540.00353514143,13,1917,1509,2
-1063.6614693846184,67.7244417906936,-75.96173884088273,162927.84712716303,145913.13219709805,67323.16959498616,14,1921,1499,2
-1019.4448851039763,61.93271153752475,-71.23144766276472,163362.55212542237,146404.5406755134,71890.12963961535,8,2009,1425,2
-974.0207420405974,57.46332978765139,-63.559521704405896,164030.85660421,146775.93698749787,77236.28098740886,14,2021,1419,2
-927.7794070211485,54.37575272447122,-52.954923205430674,164957.5454341868,146957.05348242138,83348.28193311606,6,2021,1418,2
-881.1595513015752,52.636414736439384,-39.5359693601851,166150.0585953997,146875.22649279007,90204.83830091664,10,2014,1416,2
-834.6339244917542,52.13339656718989,-23.530609798527955,167599.8183014253,146462.4833393596,97777.72205471998,2,2014,1417,2
-788.6919393874812,52.69559236252954,-5.266625410877411,169285.27122061315,145661.33926873768,106032.63768835842,0,2013,1418,2
-743.8245910135095,54.110051915130086,14.845487908851366,171176.32998482956,144430.14188079414,114930.19853022794,0,2014,1417,2
-700.5152881916766,56.13930003462028,36.34173133796618,173238.6775201142,142747.58526734114,124426.61389678995,0,2011,1421,2
-659.2280727822565,58.5482755549619,58.7555811820943,175436.10778494127,140614.8862463602,134473.6109952942,0,2012,1453,2
-620.3892687488327,61.13760450246926,81.67705122605638,177730.85200851795,138055.43805948505,145018.02417929156,0,2011,1416,2
-584.3725041520241,63.76601126197179,104.79018621762171,180082.7833499515,135112.44419282442,156001.56303059458,0,2011,1418,2
-551.4953566976911,66.34984601482017,127.87794537206317,182448.6685583903,131843.97901575489,167361.80358400097,0,2010,1420,2
-522.025240538663,68.84174009292526,150.80501198461363,184782.4248362569,128315.16652811246,179035.19875830165,0,2012,1415,2
-496.1882271547341,71.20223861855764,173.49188453981208,187036.22619260455,124590.2302289799,190960.32088109493,0,2012,1419,2
-474.17633763777496,73.37682033048193,195.8852344086585,189161.7852248466,120727.0848044234,203079.25322819097,0,2010,1419,2
-456.1524673213103,75.28174267865676,217.9263977960984,191111.68901188482,116774.08523812261,215337.41814809316,0,2009,1417,2
-442.2530617451724,76.8029424073102,239.52587512972687,192841.46120421178,112768.44192583948,227682.85459454774,0,2008,1419,2
-432.58595178670987,77.80980359088666,260.55309048039106,194312.813556056,108736.48943127022,240065.36588643992,0,2006,1419,2
-427.2222211986648,78.17388264265541,280.8440819838178,195496.95765524043,104695.49926637282,252435.53518081407,0,2010,1420,2
-426.1854847226765,77.78221427204869,300.2246737429895,196376.4674249603,100656.76733058467,264744.00467148895,0,2009,1421,2
-429.4445602480613,76.54356444262055,318.5415845914188,196945.5595238886,96629.40815574287,276941.7431781168,0,2009,1420,2
-436.9141761641602,74.39007697412276,335.6867280234926,197209.29492416297,92623.25169193189,288980.85466024786,5,2010,1418,2
-448.4627432307268,71.2777201622745,351.60419765191193,197181.90333372442,88649.33567007154,300815.3191735039,0,2012,1418,2
-463.92268346373453,67.18710083942754,366.281031586617,196884.49582005982,84718.19547360267,312401.87404551194,0,2011,1423,2
-483.0980818752435,62.12287469857997,379.72915853449473,196342.98452310913,80837.70296478109,323700.55121423345,0,2010,1419,2
-505.76711237790215,56.10962850405795,391.96684389435876,195586.68647474603,77011.83901255639,334674.53837224643,8,2014,1419,2
-531.6820373596853,49.18448799290319,403.0033971336772,194647.2147706772,73240.47363203381,345290.0647678714,8,2013,1416,2
-560.569519307523,41.390436432193574,412.82906595553726,193557.47126180178,69519.9406761968,355516.32974829717,0,2010,1418,2
-592.132381889358,32.77437958511918,421.4129812439525,192350.73941623778,65844.37260044883,365325.20743369433,0,2010,1419,2
-626.0538293585579,23.389626788939523,428.70784313304756,191059.64162467554,62207.528034005976,374691.0885154015,0,2010,1417,2
-662.0023667993829,13.29972550876907,434.6567490507797,189715.11494152233,58604.53373298802,383590.80826971453,12,2010,1419,2
-699.6371806338115,2.580960061257889,439.2007273001552,188345.58050583178,55033.0415246929,392003.6344988061,17,2010,1420,2
-738.6162587371729,-8.676954542195219,442.28733563146903,186976.05447262002,51493.77163042084,399911.6811652545,13,2010,1419,2
-778.604310133501,-20.371009380660855,443.8770833823529,185627.2364314764,47990.714709371015,407300.338767857,0,2009,1417,2
-819.2777051683009,-32.386758419326746,443.9447960562417,184314.76841253083,44531.11231832484,414158.2941566873,0,2009,1421,2
-860.3290376636277,-44.60332285619165,442.47804585837156,183048.60847680332,41125.21127966148,420477.48972813366,1,2009,1417,2
-901.4710432031756,-56.90024164710454,439.4758667215212,181832.64266717655,37786.03157980532,426253.0343877558,0,2008,1418,2
-942.4388010460472,-69.16608626841644,434.94843937763545,180664.70537690527,34529.28657047588,431482.86798215006,0,2009,1417,2
-982.9925702072823,-81.30985526344475,428.917090734245,179536.87959885588,31373.2654163365,436167.3734633557,0,2010,1417,2
-1022.9203924175368,-93.27139597832551,421.4141635914353,178435.91504469013,28338.672668726576,440308.95702839544,0,2009,1415,2
-1062.0386655764262,-105.02744469352136,412.4822300372175,177343.82406029647,25448.397744333914,443911.49085157673,0,2008,1418,2
-1100.192339525074,-116.5945424152489,402.1727086146906,176238.771516351,22727.012166980658,446979.7369944396,0,2008,1418,2
-1137.2542513362077,-128.0288042228268,390.5450543798927,175096.12475578184,20200.15618221141,449518.79452509864,0,2009,1419,2
-1173.1211299639224,-139.41992811401155,377.6664841485654,173889.54174567954,17893.907020734216,451533.4741034985,0,2010,1416,2
-1207.706190820006,-150.87928470901554,363.6110059742893,172592.1502792383,15833.89977683086,453027.5982710498,0,2008,1421,2
-1240.9301638744264,-162.5267822342803,348.457939374955,171177.63609291066,14044.423450868926,454003.3745669838,0,2004,1420,2
-1272.7138137657764,-174.48118330862565,332.29001771272567,169620.99824648644,12547.830054388596,454461.0265366556,0,2008,1453,3
-1302.9742187825184,-186.85435760525556,315.1902928598318,167898.97895492124,11364.166146565745,454398.7356007299,0,2012,1420,3
-1331.623674770714,-199.74850844965195,297.2386949402353,165990.2509617271,10511.014717468988,453812.78920152335,0,2009,1417,3
-1358.5690195418151,-213.25443529241693,278.50932749142083,163875.5779188337,10003.621858918534,452697.80218152003,0,2010,1452,3
-1383.7108075941069,-227.4464594520844,259.06965930477577,161538.2393227069,9855.19455950171,451046.9661933007,0,2010,1416,3
-1406.9423150292055,-242.3724278985277,238.98385962591252,158964.73181951177,10077.225745263957,448852.3580412047,0,2012,1416,3
-1428.148837854846,-258.0438272712568,218.3194318883344,156145.46574318467,10679.71284068788,446105.3206428791,0,2005,1423,3
-1447.2097832749312,-274.4316751928258,197.15346338224734,153075.15116520462,11671.187027107246,442796.9073429427,0,2003,1426,3
-1464.0050776990765,-291.4686821901215,175.57669520820482,149752.82979105838,13058.606705341854,438918.4128187107,0,1995,1435,3
-1478.4228642929124,-309.05416931837266,153.69590428827993,146181.8501761738,14847.195799489004,434462.03262639884,0,1997,1433,3
-1490.3663060461656,-327.05930548349085,131.63519356267406,142370.0219934612,17040.252377513647,429421.63644760585,0,1981,1445,3
-1499.7605350305107,-345.3326051427769,109.53615397478497,138329.91946096742,19638.907279285195,423793.5969038449,0,1981,1448,3
-1506.5588173410838,-363.70394625608503,87.55748746436379,134079.3239643132,22641.74549526923,417577.6496203349,0,1988,1439,3
-1510.747574251258,-381.9854135327039,65.8736858339144,129641.75769635971,26044.177774061343,410777.67366685905,0,1973,1448,3
-1512.3520361877206,-399.9702885121834,44.67101805121282,125046.95599552829,29837.562373984663,403402.2590371807,0,1947,1469,3
-1511.440845018665,-417.4311237929958,24.142301816107164,120331.27760451386,34008.220330308155,395465.17582184816,0,1946,1475,3
-1508.1255691557544,-434.11645056083483,4.482240737113004,115537.9532064687,38536.50148823111,386985.6762071057,0,1975,1447,3
-1502.5544876118618,-449.74627558703753,-14.11833355728064,110716.93226007713,43395.98120201967,377988.3729082762,0,1971,1453,3
-1494.9047698711229,-464.0077875565563,-31.47864592980564,105924.43719429303,48552.84053800319,368503.0362718254,0,1970,1449,3
-1485.3773313849135,-476.5550280769189,-47.43254064986316,101222.11288859555,53965.74260027547,358564.5512843268,0,1971,1455,3
-1474.1948226284967,-487.0160349643015,-61.832491774687554,96675.3914545827,59586.522261301856,348212.75134543405,0,1985,1441,3
-1461.6006472410995,-495.00544271364765,-74.55268114810606,92351.53778164038,65361.37770439782,337492.40808132215,0,1981,1445,3
-1447.8546910882515,-500.13976696446576,-85.48901991844343,88317.60554367185,71232.60071533601,326453.55370785133,0,1976,1480,3
-1433.22315357714,-502.05511918535825,-94.55690360408103,84637.7649333641,77141.32468328714,315151.63632734277,0,1972,1455,3
-1417.966723996755,-500.4229738233187,-101.68849037722448,81370.49339433147,83030.51491855238,303647.58555466786,0,1976,1449,3
-1402.3306884977453,-494.9609716880371,-106.82956114164134,78566.13294097027,88847.55019098055,292007.86236170173,0,1976,1451,3
-1386.5358553291499,-485.4427512868019,-109.93609675868585,76264.32914694937,94546.87543881698,280304.06622625206,6,1977,1481,3
-1370.772455682178,-471.70990647370536,-110.97085214946482,74491.74511045842,100092.18378990315,268612.46326398035,3,1982,1439,3
-1355.2005345412833,-453.68805878916226,-109.89827703344399,73260.73540125336,105457.26062611518,257013.55521639166,2,1986,1437,3
-1339.9545818353959,-431.4071570230048,-106.67739020383067,72568.62591999178,110625.8133732822,245591.000396125,0,1981,1443,3
-1325.1473890057055,-405.0173427349681,-101.25830535524837,72397.34780082235,115590.4841564426,234430.20848386228,0,1982,1449,3
-1310.8702234822354,-374.78993146007366,-93.59185571853045,72713.82550226696,120350.50295178794,223616.70375481216,0,1982,1445,3
-1297.1902473949647,-341.104722360357,-83.6542817152382,73471.40474632442,124907.9468899755,213233.50134554485,0,1975,1446,3
-1284.14797259696,-304.4365385530263,-71.47514168581314,74611.97327519058,129263.87386068226,203358.35950651724,0,1979,1447,3
-1271.7543496519882,-265.35047679539576,-57.15859467790215,76068.54889508837,133415.57489203295,194061.86595838147,0,1973,1450,3
-1259.9861704573298,-224.5036233479321,-40.90105884520563,77768.38784924534,137354.98914931263,185405.8023496794,0,1973,1448,3
-1248.7832901427885,-182.64885760135462,-23.008862623013865,79635.94037361979,141067.9176976105,177442.01533426877,137,1984,1442,3
-1238.0537246114425,-140.63667981071663,-3.912337223397768,81595.57382403439,144533.97842601265,170212.2811478351,523,1968,1455,3
-1227.6884031936008,-99.40856924345556,15.832431860208487,83574.93143952222,147727.3046172862,163748.52764274925,992,1993,1437,3
-1217.577695981125,-59.97213268610183,35.55988262863085,85508.43722223355,150618.16100524797,158072.93692008097,1505,1986,1437,3
-1207.618438483976,-23.32744156251568,54.533243180689354,87340.42921261903,153177.11613542718,153197.45244097352,1832,1979,1445,3
-1197.7109408438687,9.673910664305293,72.00832600400412,89028.78472838813,155382.92070242699,149122.0975299551,1968,1979,1443,3
-1187.75399629033,38.480922594733244,87.3128131376531,90548.9193109974,157230.95114224026,145832.81931778038,2031,1988,1435,3
-1177.6461305799708,62.92751718731277,99.93436894119829,91896.94015020001,158737.57598214052,143300.28887186007,1976,1993,1430,3
-1167.301588176568,83.22392585929016,109.60946841492093,93090.80275374698,159938.77834013474,141480.4965610439,2081,1994,1434,3
-1156.6796025833714,99.87676812433745,116.3678588832945,94167.94496880799,160883.85510169162,140317.10176299702,1975,1992,1436,3
-1145.810071184795,113.56638574467141,120.48769834655131,95177.71226301446,161625.0002695538,139745.0411038441,1995,1989,1435,3
-1134.7994150722823,125.0027692173684,122.38278874513064,96169.7276763779,162204.56041953168,139694.91906209264,2012,1979,1443,0
-1123.8131896528819,134.8028528579372,122.49611644391905,97183.795000379,162645.32402747162,140097.22309490954,2091,2001,1422,0
-1113.0394279350908,143.42825118738713,121.24121729976653,98245.35807667756,162948.4306777923,140885.80613879758,2123,2011,1428,0
-1102.6433145378915,151.18193224459986,118.97478444996219,99365.42813538152,163098.65480451268,142000.60458710013,2067,2011,1424,0
-1092.7347488489818,158.24585714771635,115.98278860663707,100542.85077290794,163073.82899076957,143388.66640322533,2159,2039,1420,0
-1083.3618716713652,164.7301048988827,112.48031707563058,101767.39513218256,162853.92453333977,145003.22791123588,2145,2028,1419,0
-1074.524200279438,170.70667681782703,108.62810919849528,103022.70199281872,162427.28239154353,146802.0120335614,2253,2028,1415,0
-1066.1944092872802,176.2257980365492,104.56203207046666,104288.89175590675,161794.42793183777,148745.69740676196,2312,2035,1418,0
-1058.3395178059266,181.31925059674504,100.41796163860893,105544.2610822457,160969.3369601449,150797.15306536804,2360,2059,1420,0
-1050.9379522045679,185.99470308746098,96.33632062588639,106765.98086482174,159977.08879140913,152921.85789644273,2297,2064,1423,0
-1043.9925566496306,190.22989306981884,92.45023313075959,107930.90729967583,158848.59449679023,155089.14379029057,2271,2039,1422,0
-1037.5342666332713,193.97367625768936,88.87274290680199,109017.12200564556,157615.3465018731,157273.1560923436,2389,2047,1416,0
-1031.611424220207,197.1556473080961,85.6916093263384,110006.10023846048,156306.18514515378,159452.71113815688,2411,2066,1416,0
-1026.2705128801197,199.7012898227765,82.96816326486562,110885.17345640984,154945.5220953426,161610.24102340726,2512,2056,1418,0
-1021.5416909966128,201.54538628297175,80.73513041293646,111649.25125496523,153552.3541067573,163730.55325838813,2580,2063,1416,0
-1017.4346178595989,202.63986026375468,78.9942257420012,112300.96125892656,152140.10776095866,165799.91315747885,2656,2058,1416,0
-1013.9383945449555,202.95872814658483,77.71681905552872,112849.58922640567,150717.16507245807,167805.5397222868,2649,2056,1414,0
-1011.0209855844436,202.50166948448555,76.8488626638239,113309.67151755712,149287.85468898225,169735.45486611276,2616,2058,1417,0
-1008.6307075871716,201.29544473491788,76.31987258920728,113699.39152260008,147853.91614250778,171578.74046240008,2611,2081,1418,0
-1006.7022280187273,199.39408400654412,76.05506357458246,114038.49856933166,146416.40419169926,173326.21887495555,2601,2080,1419,0
-1005.1638983689652,196.8790057699025,75.98655515424011,114346.16969689392,144977.47628619042,174971.2023682461,2608,2092,1419,0
-1003.9421643421717,193.85779553217827,76.05954029179611,114639.37514835689,143541.40661972918,176509.86617154177,2640,2119,1425,0
-1002.964005061029,190.45829370895285,76.23294851870759,114931.71987349472,142114.63908601677,177941.18482006824,2637,2130,1425,0
-1002.1606029753632,186.81699300258055,76.47584688109741,115232.82500324253,140705.06787509168,179266.60209689493,2535,2113,1425,0
-1001.4719785885372,183.06624408192397,76.76230551620324,115548.30934184558,139321.0765153285,180489.55913240623,2487,2118,1427,0
-1000.85022129162,179.3245256596214,77.06717153773502,115880.15372278068,137970.75374862357,181614.92970837036,2422,2132,1426,0
-1000.2601641045329,175.69011311901482,77.3629446602364,116227.29972468276,136661.30381822944,182648.40318926473,2302,2127,1420,0
-999.6778471988346,172.23848245023146,77.61813513147808,116586.3182902035,135398.73836524642,183595.93300972146,2295,2154,1421,0
-999.0881032502643,169.0234019482882,77.79785973267572,116952.08751709,134187.91391470947,184463.33837040392,2251,2140,1425,0
-998.48293004723,166.07944630922682,77.86582573526756,117318.57957760575,133032.7030626592,185256.02580681446,2201,2135,1430,0
-997.8613633096144,163.42398016749522,77.78610358779501,117679.60220434613,131936.1214047323,185978.78910498266,2103,2124,1423,0
-997.2296733559243,161.05876410489483,77.5247093042489,118029.35827834361,130900.34081977673,186635.68105905267,2039,2136,1419,0
-996.600332867895,158.9721699059237,77.05214200796296,118362.96116316871,129926.56682712377,187229.94740943547,1901,2118,1418,0
-995.9898883938391,157.1421115442094,76.34666944047177,118676.86895140079,129014.9063439514,187763.9937192491,1795,2134,1416,0
-995.4164560657277,155.53998859928333,75.3972428623625,118969.04624698314,128164.35852200333,188239.38281055333,1768,2150,1423,0
-994.8969855151772,154.13624884435632,74.20540309458687,119238.84558994415,127372.90740935426,188656.90244769512,1690,2139,1421,0
-994.4450247069691,152.90599582437147,72.7856443674182,119486.71933774272,126637.66499315621,189016.69548237824,1570,2133,1424,0
-994.070039902125,151.83182241609597,71.16365995059823,119713.80431626008,125955.06269706698,189318.44488794578,1555,2142,1423,0
-993.7781540475931,150.9027910215731,69.37266745866503,119921.39371333746,125321.08886574798,189561.63221414678,1458,2162,1419,0
-993.5733242068901,150.11086280882853,67.44941520746632,120110.44821567705,124731.53690977104,189745.78797345422,1395,2194,1427,0
-993.4581667385054,149.44681360720566,65.43101424931609,120281.31459112416,124182.21555759312,189870.6574673411,1338,2204,1434,0
-993.4340276646242,148.89670960723504,63.35211999627402,120433.66171510292,123669.09937473669,189936.3183348007,1299,2214,1600,0
-993.5004315360355,148.43965474955877,61.2425896580998,120566.58081248472,123188.41488944126,189943.2658897741,1250,2253,1603,1
-993.6545779330627,148.04764304647156,59.12622414223914,120678.83230373469,122736.64547968331,189892.45673006162,1145,2290,1602,1
-993.8913141545188,147.68770775114615,57.02007943468991,120769.1951514832,122310.46113071476,189785.33957095904,1143,2287,1608,1
-994.2033437245723,147.32538247689595,54.93378016732538,120836.77976039544,121906.63977014323,189623.88938786017,1151,2306,1642,1
-994.581390663859,146.92792802083895,52.8688987287428,120881.22695800322,121522.01985954469,189410.62523586338,1149,2322,1616,1
-995.0145084934929,146.4663948122351,50.818665671205885,120902.85518254462,121153.45741338946,189148.56364896923,1058,2353,1614,1
-995.4905091510144,145.9161663179598,48.76884112560716,120902.78654253791,120797.79391042965,188841.07261177283,1006,2355,1618,1
-995.996045558668,145.25584228665096,46.7003777881022,120883.01490462785,120451.8860306541,188491.6568397921,981,2380,1615,1
-996.5168323915955,144.46521691736785,44.59370420739327,120846.43367437639,120112.67094237477,188103.6692521755,935,2432,1618,1
-997.0390119349058,143.52464599559548,42.435569110596575,120796.93036739605,119777.12628772506,187679.9280233372,865,2424,1619,1
-997.5505032409532,142.4176013016704,40.22542467839983,120739.32948806052,119442.1115638687,187222.4747968692,790,2424,1619,1
-998.0401552672827,141.13517119923677,37.97243492753299,120678.56887691385,119104.41113449758,186732.8334706932,744,2470,1620,1
-998.4957776642551,139.6788690940023,35.68464918727865,120618.28695507531,118761.29549531573,186212.69856368972,767,2480,1615,1
-998.9040371980794,138.0587927593385,33.36343272668359,120559.96961412636,118411.36832107796,185664.49677228247,676,2532,1614,1
-999.2528784132342,136.28760296007806,31.007852376045342,120503.21714209102,118055.06746188331,185091.35905433138,669,2524,1613,1
-999.5349985189117,134.37428252168297,28.622469950506996,120446.5955307715,117694.51720446652,184496.59893864786,557,2545,1616,1
-999.7504241517385,132.3217703403085,26.22175543805729,120388.34194410457,117332.95215716315,183883.19782960814,509,2567,1614,1
-999.906799015271,130.1284151135239,23.8292844307557,120326.7471561657,116973.94170448127,183253.59615475754,422,2573,1618,1
-1000.0174760714318,127.79003503469542,21.473671343534807,120260.43166233422,116620.51131936701,182609.67549124028,522,2524,1636,1
-1000.0987382018097,125.30074951274626,19.184045156601847,120188.55548036259,116274.4753087977,181952.7688014463,434,2537,1641,1
-1000.1674031902619,122.65336019213586,16.98633383816491,120110.83725106205,115936.32313310602,181283.64569439908,407,2553,1639,1
-1000.2392515791817,119.84060784272928,14.900110633161258,120027.39242862244,115605.60525257273,180602.4667928565,382,2546,1651,1
-1000.3284346140596,116.85721281514135,12.936853794503909,119938.54387014176,115281.50973579414,179908.7729790221,316,2533,1650,1
-1000.4477652479053,113.70174989378215,11.100927714158539,119844.70871939731,114963.4481314545,179201.58367848705,224,2564,1651,1
-1000.6095142964856,110.37806395528534,9.392519809550858,119746.32311941666,114651.62526525698,178479.60591686692,208,2557,1664,1
-1000.8266955272169,106.89628013551204,7.811126240761698,119643.75372018282,114347.45852400179,177741.50989067077,201,2549,1671,1
-1001.1147298166362,103.27311305096232,6.35911748666148,119537.19538880947,114053.64473662997,176986.23919689894,129,2584,1666,1
-1001.4929097532486,99.53136577363213,5.044433001879662,119426.56347526931,113773.87060638831,176213.3347941462,157,2614,1668,1
-1001.9853800907393,95.69868196964804,3.8809984831013606,119311.42467473648,113512.37379916228,175423.18410167357,120,2605,1696,1
-1002.6214290033721,91.8056000004792,2.88695771106342,119191.01314033303,113273.52986889162,174617.03622583,80,2594,1678,1
-1003.4347904182031,87.88355925565081,2.082269111127705,119064.31670252528,113061.49521533659,173796.7388098741,50,2651,1679,1
-1004.4623126846873,83.96322723592873,1.486627295012592,118930.21637477822,112879.90999465519,172964.36975491187,74,2639,1699,1
-1005.7427361919359,80.07283292208807,1.1175850447840838,118787.67819601689,112731.68296319155,172121.9137959366,81,2660,1698,1
-1007.3160407300807,76.23702214675589,0.9891126945761426,118635.9376535599,112618.90353701188,171270.98060407746,80,2675,1696,1
-1009.2232606558447,72.47719293686083,1.1110464755605376,118474.60048645419,112542.93084366387,170412.52578575673,0,2694,1712,1
-1011.5062238232233,68.81327873691865,1.4891283684140602,118303.65485464278,112504.62146294308,169546.5628436002,2,2678,1712,1
-1014.2068172836586,65.26593052292172,2.1251667937259073,118123.4420539236,112504.56513465995,168671.9507477153,6,2682,1730,1
-1017.3657574875211,61.85779472732302,3.017477541803741,117934.62607839325,112543.2368558004,167786.32486396396,0,2644,1743,1
-1021.0211908310439,58.61342724384556,4.162046290916828,117738.17238930152,112621.08432826406,166886.11130136246,0,2643,1756,1
-1025.2078388958555,55.55848126486301,5.553984553986817,117535.3240497919,112738.58240094225,165966.59332160142,0,2649,1759,1
-1029.9575638690123,52.718685886424,7.188275703969759,117327.53519382136,112896.25184741824,165022.02339345752,0,2618,1772,1
-1035.301400195209,50.118556545914814,9.059745108223083,117116.34703142526,113094.64482545792,164045.72681472066,1,2629,1785,1
-1041.2716129688301,47.780032730084876,11.16271062061254,116903.28142293605,113334.30262471159,163030.1775184678,0,2600,1797,1
-1047.902491009156,45.72125204629409,13.490247640275243,116689.81944358454,113615.68993978048,161967.0622649432,0,2570,1842,1
-1055.230014883868,43.95542931411618,16.033070032855363,116477.45453410101,113939.11751467641,160847.34315119215,0,2559,1863,1
-1063.290874517578,42.49029208330924,18.778604174747887,116267.82619306263,114304.68243933981,159661.31705301066,0,2559,1886,1
-1072.1210563691243,41.32865885284857,21.710874028186062,116062.95073149107,114712.2574314614,158398.66442370613,0,2443,1937,1
-1081.7541665060107,40.47013149910346,24.81126688963983,115865.47575257486,115161.53039592256,157048.52732880076,0,2506,1929,1
-1092.219575759026,39.91378064174113,28.060209926316514,115678.84684903405,115652.10716354294,155599.68580211152,0,2411,2014,1
-1103.540580768079,39.66163632167999,31.43990856922165,115507.33380269528,116183.68951362684,154040.86262227388,0,2395,2028,1
-1115.733404842738,39.72153797900783,34.937119833513634,115355.92926749874,116756.25545056394,152361.11310890273,0,2325,2060,1
-1128.8078905468615,40.10716084745935,38.54441114432764,115230.14939479204,117370.14643411739,150550.15389968193,0,2301,2065,1
-1142.768166873186,40.834681588133996,42.259653009605096,115135.77554176925,118025.99890581837,148598.50753756368,0,2323,2082,1
-1157.6102365049528,41.91882500376051,46.084322843753164,115078.6393266982,118724.50062056856,146497.51058575828,0,2209,2171,1
-1173.317071583383,43.37235855616526,50.02072767898618,115064.52358007788,119466.02812781445,144239.24315185746,0,2088,2256,1
-1189.854860730491,45.2095403075901,54.06803864627486,115099.13248966169,120250.2421106039,141816.3928360214,3,2065,2140,1
-1207.172165123618,47.45004984975984,58.218288471337885,115188.04445302076,121075.76552981017,139222.21487377083,0,1923,2160,1
-1225.200759315212,50.120908692508934,62.45391230301536,115336.57852006651,121940.0834007327,136450.72628734718,0,1918,2183,1
-1243.8565076904806,53.25666682599612,66.74615108746755,115549.55426164584,122839.63193626542,133497.0832052218,0,1876,2234,1
-1263.0397957496516,56.89810400883695,71.05219282773999,115830.97846326823,123769.96719343493,130358.09209367952,0,1710,2320,1
-1282.635560965114,61.08899673708018,75.31112513191061,116183.75299011465,124725.95095419386,127032.82027283488,0,1643,2364,1
-1302.5124759889832,65.87147800063428,79.4410648328636,116609.56313623892,125701.88032521169,123523.19200749818,0,1538,2411,1
-1322.5215766923927,71.28036918135851,83.33945936703128,117109.09353794872,126691.62189126792,119834.36391555259,0,1469,2425,1
-1342.4955280158003,77.33634180123498,86.88705936481692,117682.56106606977,127688.89052352209,115974.77101786324,0,1373,2502,1
-1362.248278481734,84.03979001524729,89.95412476911332,118330.30085565004,128687.57559543151,111956.04824496525,0,1174,2558,1
-1381.5749250517188,91.36799384223356,92.40795224346513,119053.17428427843,129681.96927225428,107792.93263429485,0,1075,2603,1
-1400.2529661212432,99.27550641618951,94.1222729616892,119852.80731130102,130666.91411633283,103503.02821653464,0,987,2605,1
-1418.0447052733844,107.69589584957738,94.98648654036201,120731.62813676182,131637.84099963453,99106.60138970695,0,935,2629,1
-1434.7010004542858,116.54408817592052,94.91257502842929,121692.54289803255,132590.62776559798,94626.50545904374,3,804,2663,1
-1449.967881695152,125.71943244940198,93.84076411968384,122738.22279996486,133521.30924701056,90088.02632066619,0,778,2620,1
-1463.5935464350964,135.10826086931073,91.74344111454626,123870.19962308984,134425.71218048251,85518.73820246737,0,722,2639,1
-1475.3317163312672,144.58478712473385,88.62428969187697,125087.87071802637,135299.04321620916,80948.43617928625,0,712,2638,1
-1484.9416768800227,154.01082238171597,84.51225926398118,126387.41172500898,136135.44865917022,76408.9375074891,0,678,2647,1
-1492.1875560377948,163.23491154394162,79.45454563498001,127760.86452977185,136927.69390200404,71933.8870566927,1,683,2624,1
-1496.8391425597522,172.09118722688441,73.51263389029437,129195.64749966621,137667.1466826103,67558.66252468384,0,670,2611,1
-1498.6746024017637,180.39905838753864,66.76171512897193,130674.38471967376,138344.0864549684,63320.128133486585,14,773,2552,1
-1497.4835892691854,187.96603163920207,59.29250003979578,132175.0110094582,138948.38692501836,59256.41413487201,1,775,2513,1
-1493.0706492345635,194.59382411785415,51.21418138196266,133671.21905827086,139470.5546836076,55407.11648997186,15,850,2440,1
-1485.2605973760653,200.0841804965162,42.6561560562935,135133.0991870464,139902.6797928423,51813.85474367994,6,922,2373,1
-1473.9094955451728,204.2439540506447,33.766301050316265,136528.110414891,140238.96566665638,48520.94434979001,14,1043,2265,1
-1458.9228607107266,206.8934161993648,24.706003310795015,137822.77948185816,140476.04521881466,45576.00355671169,14,1128,2205,1
-1440.2739437361126,207.88041876908434,15.645446670003254,138984.8551278812,140613.22344713917,43030.23286399681,23,1287,2081,1
-1418.0112530902309,207.1049575081436,6.762575706406914,139985.7500089707,140652.4481591483,40937.76681128654,20,1427,1965,1
-1392.2514193003924,204.55451488356783,-1.7541927032705278,140803.51512577987,140597.88317649168,39353.72769728219,27,1504,1905,1
-1363.1621162669496,200.3336128285722,-9.70191811309872,141425.5199410818,140455.21646289504,38331.816379411895,28,1595,1801,1
-1330.9391262131512,194.66794905426278,-16.86113315615501,141849.6738151273,140230.68184836133,37922.457907412834,23,1707,1709,1
-1295.7804064857273,187.88174196850667,-22.9978194168517,142084.17750433995,139929.63098097336,38171.73621140187,21,1768,1658,1
-1257.8689133314062,180.36209422515088,-27.870239342973097,142146.25604465348,139554.96193924113,39121.21536779035,22,1843,1583,1
-1217.3758426591178,172.51682892851545,-31.245559986640917,142059.77337619726,139105.69221249022,40808.285128088115,1,1859,1552,1
-1174.4814904511252,164.72507749784353,-32.92780457300558,141851.76487510887,138575.5492044705,43266.04944505442,10,1891,1539,1
-1129.4011365543447,157.29365676359114,-32.78535771672594,141549.12552180537,137951.87821782532,46522.27921862753,11,1907,1510,1
-1082.4049328070323,150.4317964473525,-30.766991952999778,141176.46257790172,137215.5418415626,50597.78761126933,0,1950,1462,2
-1033.8280121785838,144.24130250002807,-26.90677674304885,140754.82084462533,136341.9801492151,55504.688373847086,0,2005,1427,2
-984.0716301536186,138.71962248197795,-21.32078546313345,140301.03266856368,135303.0544206879,61244.74436415043,0,1977,1450,2
-933.593967877148,133.77873607436365,-14.195847792427479,139827.76606406952,134069.69131224343,67808.15890033085,0,2016,1416,2
-882.8904317733419,129.2774059668739,-5.771501931322127,139344.05366570025,132615.50883437987,75173.11390260006,0,2008,1421,2
-832.4723231525069,125.05397940916492,3.6792955096305864,138855.92402368793,130920.44342034281,83305.85686987668,0,2012,1419,2
-782.8486469828381,120.9516811867477,13.869117932151056,138366.90785008317,128973.35822236094,92161.49924624678,0,2012,1421,2
-734.5070565271296,116.84011146836626,24.518467001188746,137878.44331946477,126773.77906881274,101685.9217563589,0,2013,1416,2
-687.8985659907427,112.63182848852973,35.37802513639034,137390.28578647904,124332.77506156696,111818.04644070659,0,2014,1417,2
-643.431832199358,108.28692013312812,46.24550493803148,136901.02150508406,121672.25653781174,122492.08942897554,0,2010,1420,2
-601.4720898548492,103.80475265066684,56.97716053359386,136408.64211902497,118822.41153064457,133640.3065486243,0,2013,1420,2
-562.341547077052,99.20854200994962,67.4900536638821,135910.92300660413,115818.30384497756,145195.30820768108,0,2010,1417,2
-526.3225552442592,94.52590911461651,77.74846491436998,135405.52511672128,112696.36911111345,157091.06626838588,0,2010,1416,2
-493.66239939859844,89.76617906503981,87.73741453648536,134890.0502616843,109490.73821108021,169263.3403710437,0,2012,1418,2
-464.5775464050634,84.90289519557035,97.43710573709757,134362.31022437074,106230.46883364844,181649.7056431473,0,2014,1419,2
-439.2547002890306,79.8726459025215,106.80897951316088,133821.05321253548,102938.93334474023,194189.1770496031,0,2013,1419,2
-417.8470251739255,74.58979504664782,115.79410968411746,133267.1893780229,99634.90244692418,206822.1163107422,0,2012,1417,2
-400.469432122357,68.96633770487306,124.32066664450892,132704.98713777732,96334.21974553738,219490.31017250483,0,2014,1419,2
-387.19774381048506,62.92847682425458,132.31810547999592,132142.53024149174,93051.45966549974,232137.080727547,0,2017,1420,2
-378.07113685390436,56.42827781790209,139.73572274631923,131591.28164503636,89801.29922062345,244707.93771975543,0,2016,1420,2
-373.0948866708694,49.44914386050826,146.55853988380954,131065.137994531,86599.25851987585,257151.34951815804,0,2009,1417,2
-372.24190681049464,42.00334104272103,152.8131058170354,130579.20801168734,83461.32205715509,269419.31360069866,0,2009,1419,2
-375.4532153249086,34.123237239847455,158.56257873215654,130148.35551054966,80402.43329712158,281468.27205616335,0,2010,1421,2
-382.63864590076406,25.851554409286745,163.89524534794134,129785.97865522392,77434.82054868918,293259.85184000275,0,2011,1414,2
-393.6789676226582,17.234082372204348,168.91037449734333,129503.5078454103,74567.0000119225,304760.7583934931,0,2011,1417,2
-408.42828113999997,8.313774718232771,173.70377057793718,129310.47508428339,71803.4073261369,315942.28782197577,0,2012,1416,2
-426.71509664645487,-0.8733271715671065,178.3571438564155,129214.74273240399,69144.55263117686,326779.6166691329,0,2011,1417,2
-448.3443069512271,-10.297700045797837,182.93421008121774,129222.54940803736,66587.7689274764,337250.9040937451,0,2010,1415,2
-473.1018860729128,-19.932098229665975,187.48054370730586,129338.23345481945,64128.35945521072,347336.67502549605,0,2010,1416,2
-500.75938264538996,-29.746726509698398,192.02410539042413,129563.8438694333,61760.71536821472,357019.43271005014,0,2011,1420,2
-531.0764060396882,-39.70570704273347,196.57757185989777,129898.90292542246,59479.03971589401,366283.4858731133,0,2011,1416,2
-563.802278409557,-49.76461946415432,201.14244854394062,130340.26329039641,57277.64814633952,375115.29987692763,0,2010,1419,2
-598.6778946413243,-59.86888117089816,205.7118023694165,130881.88964078971,55151.05355856573,383503.8894180709,0,2010,1416,2
-635.4382185502805,-69.95336570156243,210.2702619952834,131514.56860436362,53093.975542783024,391440.8493834774,0,2009,1417,2
-673.8139577818536,-79.94333788288219,214.79226424366834,132225.6268311065,51101.33060435106,398920.3984773504,0,2010,1416,2
-713.5323802967721,-89.75762993439963,219.23896521774725,132998.76929404744,49168.28674301547,405939.37405217206,0,2011,1416,2
-754.319833475209,-99.31497115392784,223.55429047121754,133814.15064974266,47290.44884104594,412496.8996801253,0,2009,1421,2
-795.9051136467959,-108.54134591069433,227.6619402693119,134648.67403773568,45464.21119134132,418593.9186349738,0,2010,1415,2
-838.0230347702385,-117.37705782791387,231.46549086694128,135476.5946864835,43687.29074702338,424232.8460349017,0,2013,1415,2
-880.4205164392848,-125.7847335040379,234.85195620832548,136270.52785720138,41959.358243702976,429417.40564196405,0,2013,1419,2
-922.8628510239181,-133.75617588329177,237.6971435102484,137002.57329493205,40282.590929176404,434152.415735878,0,2013,1416,2
-965.1366826033197,-141.31431269234545,239.87257199649366,137645.35610116564,38661.94861797351,438443.2991157432,0,2013,1415,2
-1007.0506847622706,-148.51050923788566,241.25478388728052,138173.12436897313,37105.087203492076,442295.4356387817,0,2013,1418,2
-1048.433782068098,-155.419771157099,241.7343297534334,138562.71067138066,35622.024402231415,445713.47122827615,0,2009,1420,2
-1089.130648490609,-162.1351385959782,241.22071863767474,138794.0731532256,34224.568522761896,448700.6488879706,0,2009,1423,2
-1128.997170592891,-168.76193910626952,239.64274003715565,138850.513075506,32925.4278371504,451258.3032144091,0,2007,1417,2
-1167.8968865283327,-175.41353998297419,236.94526147371377,138718.69453218652,31737.329070391974,453385.55059256515,0,2008,1418,2
-1205.6978162744797,-182.20962215219424,233.08374888717995,138388.50378426485,30672.529998441052,455079.192560356,0,2008,1418,2
-1242.269940258574,-189.2757600340857,228.0182492202075,137852.84421870994,29742.68129735972,456333.8944984659,0,2009,1417,2
-1277.4826587708014,-196.74205948499403,221.70953624207408,137107.4803697244,28958.936381164825,457142.48774883465,0,2008,1420,2
-1311.2020594765497,-204.73860476135104,214.11926265350434,136150.9304105229,28332.31712305369,457496.22325358936,0,2006,1422,3
-1343.2890387356063,-213.38729889043682,205.21369846216888,134984.33168612787,27874.246817056475,457385.0262566959,0,2010,1416,3
-1373.5977835053536,-222.79325665512283,194.9692963079145,133611.27929769034,27597.04334941725,456797.77324646385,0,2012,1417,3
-1401.9750721825255,-233.03896474956062,183.37845710592347,132037.53078779398,27514.218173408404,455722.5959848778,0,2011,1419,3
-1428.2622597626857,-244.18106672942662,170.4547775154525,130270.42165774952,27640.577935144676,454147.2922725741,0,2008,1425,3
-1452.2986947358766,-256.2484568564563,156.23720464241617,128318.19613625575,27992.17737342,452059.8142998546,0,2000,1427,3
-1473.9259855143662,-269.2417780075324,140.7926662222315,126189.46785252764,28586.134517681283,449448.7575303575,0,2010,1419,3
-1492.9953191027687,-283.13508059380473,124.2175023433986,123892.74907835337,29440.307924458615,446303.85887077975,0,2010,1419,3
-1509.376138181561,-297.8788657062869,106.63804568201343,121436.16993516829,30572.8538470809,442616.48726506997,3,1996,1431,3
-1522.963222163857,-313.40329946855866,88.20908452263299,118827.58711913842,32001.54792345184,438379.9764435366,0,1992,1438,3
-1533.6823333060217,-329.62120723341883,69.10907051713517,116075.03052315266,33742.73789531094,433589.7252783598,0,1984,1439,3
-1541.4934055896529,-346.4290951266106,49.534475043069015,113187.39843135772,35810.136750600934,428243.29899196443,0,1994,1434,3
-1546.3903682055914,-363.704088907044,29.695331586200922,110175.40777858312,38213.69273810926,422340.67451423034,0,1994,1436,3
-1548.3996738978437,-381.2973749096185,9.81113268529692,107052.7341713439,40958.52045234661,415884.5096894354,0,1983,1440,3
-1547.5794078589217,-399.0267136952164,-9.892400840138828,103837.06657857256,44043.982300969576,408880.49487883976,0,1977,1450,3
-1544.0189314437664,-416.66971912068414,-29.185912471400588,100550.74982243965,47463.11247057705,401337.7580510223,0,1977,1444,3
-1537.8381245692838,-433.9579024218032,-47.840621370813984,97220.94517236196,51202.373521832546,393269.0988497307,0,1967,1455,3
-1529.1857927307371,-450.5727210588599,-65.63295621079483,93879.50519677822,55241.57521127925,384691.24771191826,0,1969,1447,3
-1518.237333613995,-466.14816164351373,-82.34738410485866,90562.47800232215,59554.06494486352,375625.3028011672,0,1965,1458,3
-1505.1920600759174,-480.2819463963052,-97.7783122438769,87308.96938201398,64107.44473911961,366097.1255758288,0,1978,1447,3
-1490.2709588400683,-492.54946956139366,-111.7313893356872,84159.68325038008,68864.56822436566,356137.8339296823,0,1970,1450,3
-1473.7136777530752,-502.515233662248,-124.02395622385389,81155.29097333744,73784.79272768677,345784.425172339,0,1965,1455,3
-1455.7731282656114,-509.74299986336086,-134.48589213142182,78334.30865421366,78825.83795256099,335080.14938577334,0,1965,1453,3
-1436.70927225723,-513.805012381282,-142.96068136616023,75730.9786493824,83945.6891110841,324074.75919993984,0,1968,1453,3
-1416.7825350304697,-514.2917147494495,-149.30596034441996,73373.61570145056,89104.01684858906,312824.65565354703,0,1973,1449,3
-1396.2462272262853,-510.8260513480619,-153.39538569702034,71283.0237174469,94263.45859040366,301392.54427266575,0,1973,1455,3
-1375.3421377152795,-503.0827215285681,-155.1213048684234,69471.20796120944,99390.60453136299,289847.03745224955,0,1972,1449,3
-1354.3019880914783,-490.81395103473596,-154.3933160415534,67941.0236938966,104456.42551275987,278262.4169624027,0,1982,1446,3
-1333.349582842046,-473.8809908465143,-151.13231220522837,66686.583153226,109436.48048524857,266717.8925130341,0,1984,1440,3
-1312.6991607173472,-452.27781834013496,-145.2680484080834,65693.9004645252,114310.71562304038,255296.5003772501,0,1977,1443,3
-1292.5516265117597,-426.1351799502201,-136.75011590499136,64941.81208935254,119062.14027899122,244083.55752487664,0,1979,1447,3
-1273.0920315518063,-395.7097822612745,-125.57263158941193,64403.5642508591,123674.39456632362,233163.93578723556,0,1981,1450,3
-1254.4898264517676,-361.37192512611466,-111.79938396887376,64048.98173585957,128129.23661500463,222619.08032790368,0,1979,1447,3
-1236.8990083469675,-323.597507309617,-95.57790771431407,63847.0285311689,132404.99186928174,212524.50589945313,0,1979,1449,3
-1220.4540966908392,-282.9616487199447,-77.14379696339198,63768.68413764713,136476.10730021197,202946.99101635377,0,1984,1439,3
-1205.2636320331997,-240.13291763167766,-56.82087478958234,63789.26876328492,140313.33244778888,193942.0912883409,0,1987,1437,3
-1191.4048511923777,-195.8659385104513,-35.01909613815631,63889.33264633404,143884.45579601495,185552.9731356603,0,2000,1428,3
-1178.920038250211,-150.98826197213592,-12.23014186611344,64054.33419912543,147155.8275486983,177810.02992012378,0,2009,1425,3
-1167.8146155410361,-106.3851520476364,10.978071490155633,64273.791372664105,150094.31664019523,170731.0252669928,34,2016,1415,3
-1158.0559483408815,-62.986519571632655,33.97009244334697,64540.277734561816,152669.8467487811,164321.92349746602,151,2014,1420,3
-1149.5704257198165,-21.752573726231095,56.05911658324484,64848.398938003804,154859.16284722157,158578.03396017686,443,2016,1419,3
-1142.2403644093745,16.356183146965712,76.53115913039021,65194.084092425255,156649.9808302599,153485.18826611468,883,2011,1423,3
-1135.9059193136059,50.453897322593015,94.69072314648739,65574.71338044664,158044.92069030946,149020.87410058244,1210,2015,1416,3
-1130.373511666134,79.85533021495466,109.94333289860397,65990.26142060918,159065.99893414188,145155.1229355707,1453,2014,1416,3
-1125.4244759371754,104.20280983477222,121.89143039459415,66444.97967491843,159758.49466925077,141851.08690244227,1563,2013,1417,3
-1120.820672732565,123.53139304941087,130.4029474131001,66948.774040217,160190.3482629158,139065.85434861676,1683,2012,1417,3
-1116.3177301156995,138.24394041695678,135.6295911550565,67517.42800595395,160444.69539371674,136752.4173794299,1681,2013,1415,3
-1111.6923353373418,149.01405123439898,137.96893923664823,68171.06262355146,160608.0229699468,134862.7379674517,1769,2011,1417,3
-1106.7754868658267,156.6511081521869,137.97924497202905,68930.64105505771,160757.57264089843,133350.98422228638,1875,2012,1417,3
-1101.4839863077384,161.9473424366296,136.2719514770837,69813.39299528567,160949.62300606654,132176.3716955057,1931,2012,1454,0
-1095.839519914897,165.54827716413286,133.42518164829863,70829.22956970916,161211.78611333264,131305.05843606777,1943,2013,1416,0
-1089.958316704464,167.89537696073597,129.94006439395122,71979.17129001571,161542.38377157628,130710.37254283317,1894,2014,1419,0
-1084.0102417271125,169.24016972706585,126.21772894325329,73254.93471131899,161915.59948154606,130371.34843351226,1857,2023,1417,0
-1078.1714280315198,169.69544580147726,122.54152041614496,74639.2949383795,162288.74730219223,130270.42031512014,1878,2011,1417,0
-1072.5911530689505,169.29570976992855,119.07483495778993,76108.32623947217,162610.4845417441,130390.93415115308,1788,2018,1417,0
-1067.3722426015572,168.05461822119534,115.8797350568025,77635.73952674547,162830.8568647072,130714.71921828153,1822,2031,1417,0
-1062.562147500469,166.0057615497102,112.94557137362729,79196.94261293564,162910.98941588338,131220.58078272786,1818,2022,1416,0
-1058.1582869575207,163.2151221029786,110.21874566021226,80770.59329666776,162828.61297176828,131884.46859381924,1851,2030,1421,0
-1054.1277410861585,159.76943055718087,107.6327570719844,82337.94535519558,162578.57101487886,132681.1880540887,1887,2020,1419,0
-1050.4331250519565,155.7528445130101,105.13259613701862,83881.44847264829,162169.88341590183,133587.00246339137,1790,2042,1421,0
-1047.0521987473162,151.22714129839713,102.68590736831828,85383.82951443593,161621.64746500994,134581.79492564368,1885,2059,1421,0
-1043.9842832538109,146.22633317715912,100.2807972328025,86828.4884742835,160958.78309695094,135649.71989806445,1877,2030,1428,0
-1041.2451749789577,140.7646882540042,97.91483296491039,88201.30754741683,160207.25519416603,136778.5404633296,1837,2046,1420,0
-1038.856221020322,134.84970149315257,95.58372355110377,89492.89599913641,159389.71943583366,137958.43188709498,1839,2043,1429,0
-1036.8317839562737,128.49335787609616,93.27695396730515,90700.1273846754,158522.95571175328,139180.8154627721,1831,2047,1422,0
-1035.1675293370108,121.7209084186322,90.97894160604173,91826.57798057176,157616.89288276472,140437.45941983227,1812,2061,1423,0
-1033.8337778540542,114.57755716158132,88.67026835707189,92881.8335818214,156674.78389826964,141720.01888939316,1798,2058,1427,0
-1032.7772305120975,107.13152684869691,86.32676924181283,93879.59332780477,155694.65891603002,143020.17927579756,1708,2074,1429,0
-1031.9292255169144,99.47215454256586,83.91776704721673,94834.8674997955,154671.88172329168,144330.2992735485,1621,2056,1439,0
-1031.2153832693107,91.70300276927514,81.40604208907624,95761.33765982036,153601.8231581004,145644.13521257986,1542,2047,1461,0
-1030.5638150142909,83.92960633447629,78.75172582234312,96669.70380640816,152481.86117712752,146957.40801429792,1416,2033,1455,0
-1029.9127669907496,76.24334671447401,75.91976439451768,97566.84430131102,151312.77137515415,148268.2927394776,1217,2025,1463,0
-1029.2166704456106,68.70911750156385,72.88729173973691,98455.54831081451,150099.46646641963,149577.68601775664,1135,2059,1466,0
-1028.447678255238,61.36324214401782,69.64771934796647,99334.99442392246,148850.68611416584,150888.93370371425,968,2078,1490,0
-1027.593193083442,54.21924734955947,66.21164088083171,100202.12205992996,147577.5298470343,152206.99834153568,811,2046,1533,0
-1026.652539340495,47.27568701697364,62.60542312831191,101053.49265391598,146291.43285590224,153537.38758987616,815,2030,1530,0
-1025.6341475109282,40.5239111414706,58.866878755851026,101886.80985381671,145002.57126235776,154885.25600754243,514,1966,1583,0
-1024.5525551524854,33.956207567753424,55.03837711693963,102701.71750804107,143719.05463386368,156254.85995322268,497,1965,1584,0
-1023.4255176040431,27.57264414881936,51.16061212876961,103500.04759676885,142446.59744278513,157649.269784267,350,2011,1572,0
-1022.2722698138555,21.384456861056137,47.26881271223288,104285.6252557253,141188.5253390515,159070.215858601,320,1983,1619,0
-1021.1127348603823,15.41481351594907,43.39000858516632,105063.58865856177,139946.19093159708,160518.07864948077,289,1946,1655,0
-1019.9668585000449,9.698543678396383,39.54108979543812,105839.35359187472,138719.70498487263,161992.04813324573,208,1900,1675,0
-1018.8534095639542,4.280227425844893,35.72884588902385,106617.62050313054,137508.68385601387,163490.3236719828,170,1904,1675,0
-1017.7881349606804,-0.7908770817093906,31.952007865825838,107401.69122415945,136312.76892319706,165010.2965490588,164,1897,1694,0
-1016.782015155836,-5.468165884563407,28.204206872255263,108193.04065945433,135131.9136540533,166548.8071602986,53,1846,1747,0
-1015.8403666357664,-9.714104927686174,24.476925856130276,108991.10988510124,133966.54437489444,168102.40243609092,50,1811,1786,0
-1014.9633112073965,-13.504051671806991,20.762431844584462,109793.42008719094,132817.6464355708,169667.49913338103,35,1799,1805,0
-1014.1478519180758,-16.827985574797548,17.056583256218257,110595.99853123243,131686.7912657147,171240.51404324727,19,1816,1773,0
-1013.3905646806961,-19.690366734520286,13.360790684567116,111393.89255488798,130576.13911641753,172817.91594891908,39,1730,1865,0
-1012.6894868952121,-22.10815162942845,9.683038118329922,112181.66118433498,129488.36899603419,174396.14022781397,3,1659,1899,0
-1012.0449492374601,-24.107902330859254,6.03817838495912,112953.91578669832,128426.45100438774,175971.45904863463,11,1659,1924,0
-1011.4596722437568,-25.722762332758844,2.447246715548375,113705.78028556758,127393.35306289342,177539.86885355445,0,1672,1923,0
-1010.9383551956054,-26.989373957473987,-1.0643713255031986,114433.11218581127,126391.79249754631,179097.0026029525,0,1638,1966,0
-1010.4870379008363,-27.94523928901368,-4.469399747627415,115132.56626147834,125424.01803648841,180638.08956479625,22,1647,1970,0
-1010.112033622223,-28.627173049447137,-7.7411760072812905,115801.59912693867,124491.60488906693,182158.02711152003,32,1608,1996,0
-1009.8181240643409,-29.070705677433043,-10.856298133179983,116438.42970503872,123595.2769719669,183651.620948968,0,1648,1988,0
-1009.6067783404985,-29.310000390926152,-13.797032297038553,117041.96291531002,122734.83879178637,185113.8649067118,0,1656,1984,0
-1009.4755464011471,-29.37802227212343,-16.55253508047609,117611.72307805203,121909.30737515546,186540.13391111753,0,1591,2043,0
-1009.4187337731114,-29.3068851019315,-19.118693294994042,118147.86075895374,121117.20736513055,187926.3344340522,0,1603,2018,0
-1009.4289028911707,-29.12822158454375,-21.496449820998905,118651.23730549912,120356.89944455141,189268.95846336847,2,1554,2083,0
-1009.4992020809414,-28.87351649423512,-23.688469265000265,119123.59656566812,119626.80450394138,190564.89016039565,0,1553,2072,0
-1009.6259746540634,-28.575038527388028,-25.695924111995943,119567.82650449275,118925.45758676308,191810.9404468143,3,1554,2083,0
-1009.8098420072371,-28.26594495342669,-27.51692730809329,119988.20448966177,118251.38902604488,193003.27610783628,0,1528,2116,0
-1010.0536281317054,-27.974920107219347,-29.145981983114996,120390.39409330234,117602.80920242182,194137.13431780157,0,1513,2133,0
-1010.3573665952489,-27.715461681378468,-30.576135586519474,120780.8807956505,116977.21075699382,195207.17452393923,0,1509,2147,0
-1010.713482411897,-27.477761926949754,-31.804589076768067,121165.92432976502,116371.24092035793,196208.29276058893,0,1462,2185,0
-1011.105978099576,-27.23015656709777,-32.8367819463407,121550.5650450307,115781.10564284174,197136.41856244026,0,1479,2167,0
-1011.5139335452077,-26.92991578391009,-33.68653012821802,121937.96966551771,115203.36679799948,197989.04303883016,0,1510,2152,0
-1011.9162168563244,-26.536528565213967,-34.374437909423115,122329.13516663367,114635.68639616635,198765.3270177991,0,1495,2193,0
-1012.2951744828439,-26.020834612218202,-34.92499607121546,122722.98748766138,114077.224009329,199465.7149100931,0,1466,2225,0
-1012.6393047402115,-25.369141327482936,-35.3622015047341,123116.77483892518,113528.71879039501,200091.28069404283,8,1503,2207,0
-1012.9448914541649,-24.582840408907256,-35.70515275003638,123506.66183887508,112992.20933531948,200643.07122699352,0,1531,2192,0
-1013.2159574214446,-23.673754609227814,-35.96514295175953,123888.46903423856,112470.32354638564,201121.52979228104,0,1532,2208,0
-1013.4628062350783,-22.658293959257616,-36.145451316298846,124258.28236386958,111965.46725144186,201526.09308286195,0,1498,2243,0
-1013.699914849536,-21.55363252011189,-36.24427245748853,124612.72487438309,111479.3042637503,201855.09604606673,0,1508,2242,0
-1013.9429339315641,-20.376545153248635,-36.25928322781757,124949.00510218674,111012.59802786337,202105.96865546764,0,1486,2260,0
-1014.2048735413175,-19.14382976365462,-36.19075444743446,125264.87016746019,110565.3799057186,202275.55461777138,0,1419,2308,0
-1014.4931847849131,-17.872370207351505,-36.041146038389435,125558.47107753366,110137.42247481317,202360.45228637732,0,1378,2317,1
-1014.8097162968335,-16.578340925253347,-35.812189603151786,125828.16251792552,109728.87465654474,202357.3858109976,0,1378,2305,1
-1015.1535841229776,-15.276821573403842,-35.50209554729335,126072.31441888226,109340.74999591985,202263.53629925067,0,1364,2322,1
-1015.524865869353,-13.982059199215911,-35.104357286619624,126289.21582028376,108974.99260320458,202076.7768002284,0,1362,2352,1
-1015.927365163009,-12.707625012181913,-34.60795223940732,126477.10395248217,108634.13460349472,201795.8644215713,0,1339,2367,1
-1016.3698838424507,-11.466382356278787,-33.998231444648894,126634.28419634883,108320.81768319612,201420.58222360903,0,1367,2362,1
-1016.866121412995,-10.270664602045189,-33.25789763983146,126759.27989272747,108037.39098117608,200951.78079164866,0,1327,2379,1
-1017.4339228111565,-9.132606634444466,-32.368074831278754,126850.95448796642,107785.60761390641,200391.3328622596,0,1294,2401,1
-1018.0942732456908,-8.06410515130996,-31.310102154523875,126908.53382606966,107566.4229517375,199741.988161757,11,1284,2416,1
-1018.8699293015358,-7.076351627825131,-30.06797555149951,126931.51830604425,107379.90893819007,199007.1177630092,8,1256,2417,1
-1019.7839095437681,-6.179323682899232,-28.630209360978196,126919.55642103596,107225.28381501873,198190.4733072943,9,1240,2443,1
-1020.8582013681399,-5.381098630894949,-26.990384744890694,126872.28844805973,107101.08908303652,197296.06098770752,5,1203,2462,1
-1022.1127194683035,-4.686759569536608,-25.14694962205783,126789.12416748803,107005.49672473723,196328.09588830365,0,1197,2459,1
-1023.5646987449679,-4.0974948232219655,-23.103128298144437,126669.01491621418,106936.61134064777,195291.02380387642,9,1191,2474,1
-1025.2289458525568,-3.610679604962749,-20.867463241883634,126510.31253842877,106892.65747416433,194189.57124016166,10,1135,2508,1
-1027.118905502593,-3.220926246288698,-18.4551622948797,126310.74018684505,106872.06856227215,193028.7197681817,5,1139,2533,1
-1029.247668058195,-2.9214073009719104,-15.889620133947307,126067.50007041529,106873.50997247788,191813.61002852584,17,1090,2549,1
-1031.6280720268426,-2.7049304269800496,-13.202811989448302,125777.60639237423,106895.83224201664,190549.4101936029,0,1070,2557,1
-1034.2722065463006,-2.564645907523381,-10.434193107036322,125438.44825925943,106937.97977768588,189241.1349355628,5,1056,2587,1
-1037.1912750585384,-2.494120528357326,-7.628994176267905,125048.36876801787,106998.92390940699,187893.49975925844,11,1095,2605,1
-1040.3959916327483,-2.4866052346525542,-4.8363997905503995,124607.08272962793,107077.66651644936,186510.88221471597,14,1083,2629,1
-1043.896811351371,-2.5340870686774184,-2.107426409211028,124115.96343424034,107173.28234332465,185097.34483162762,11,1014,2647,1
-1047.703697917107,-2.6269569531779586,0.5077782339416996,123578.21648085477,107284.9480172105,183656.65821768012,0,975,2670,1
-1051.82585466258,-2.75434862192597,2.9631579770506455,122998.90343635803,107411.96663700772,182192.27040724896,0,965,2696,1
-1056.2717649292042,-2.904695548377929,5.219700485074428,122384.86866623262,107553.81478881593,180707.25900688182,0,955,2714,1
-1061.0495933891202,-3.066253780064907,7.247887489158421,121744.62558536521,107710.19701771213,179204.31587456536,0,928,2743,1
-1066.1676251529254,-3.2272450283021366,9.02981175305261,121088.170539279,107881.06664236204,177685.70613622898,0,908,2753,1
-1071.6340848855696,-3.3754484774537548,10.560150232277564,120426.74719849884,108066.58546245,176153.2130159281,1,843,2763,1
-1077.4564546615784,-3.497913249480878,11.845541986506104,119772.58698164106,108267.0472202235,174608.08219105517,0,862,2793,1
-1083.6412393751075,-3.581369829690181,12.903094970625679,119138.57687324921,108482.82194042816,173050.87336541963,0,779,2810,1
-1090.1944057128085,-3.6127407514617764,13.758904009572435,118537.91438365789,108714.34753175586,171481.2388501824,2,776,2821,1
-1097.1219175917115,-3.5787224991166178,14.446951297878071,117983.7893253105,108962.14911957995,169897.6322292811,3,680,2830,1
-1104.4300454295444,-3.4644414748700068,15.00810281719049,117489.01827136954,109226.84539678934,168296.87705175093,0,695,2880,1
-1112.125514873822,-3.2518430051454708,15.488350095232502,117065.69240689035,109509.10534539387,166673.78813102224,0,669,2855,1
-1120.2155204054268,-2.9180577175662443,15.935739858406418,116724.92240021708,109809.54826634876,165021.06718444196,3,599,2866,1
-1128.7073614017186,-2.4341241775704368,16.39678529852593,116476.62793095298,110128.62574148277,163329.42543236504,2,584,2879,1
-1137.6077660940225,-1.7647823513023322,16.912991640865847,116329.31607473089,110466.5655310025,161587.8742629331,1,521,2904,1
-1146.9223303246197,-0.8695047689743495,17.51700447683056,116289.84376626604,110823.4336633466,159784.15945419375,1,510,2919,1
-1156.6549893978847,0.2956555653433978,18.229296112801144,116363.26190508397,111199.27099231246,157905.21220642887,11,459,2923,1
-1166.8073880096863,1.7758605928943305,19.057324467885383,116552.89202706459,111594.22854058874,155937.51744226465,2,416,2983,1
-1177.3783482903373,3.6157200140609036,19.996705054518113,116860.60328587136,112008.6644430739,153867.47287335966,5,441,2956,1
-1188.362833233561,5.858607994247003,21.032533472756867,117287.08064191359,112443.17008994622,151681.8597400587,4,363,2996,1
-1199.7493482715727,8.546358135794467,22.140564693369235,117831.97231285366,112898.52975425994,149368.42316062405,1,313,2999,1
-1211.516170587573,11.718189530426429,23.288359294966227,118493.9542629921,113375.66117386165,146916.4503034911,6,299,3013,1
-1223.6279351932099,15.408199064815749,24.4356654196239,119270.78078515695,113875.56913604295,144317.16199080265,10,211,3007,1
-1236.0332923208914,19.64158588316679,25.534230777903968,120159.38865794585,114399.32026721141,141563.83025032564,11,199,3014,1
-1248.6631218490436,24.4311406566633,26.5280707863483,121156.0478646455,114948.02028691913,138651.79178900516,8,179,3020,1
-1261.4289544912374,29.775266439504705,27.354845738638723,122256.53745141636,115522.77703373488,135578.49813693424,0,153,3027,1
-1274.2221903811242,35.65719389919552,27.948680151900504,123456.36838999827,116124.65631281298,132343.58483338857,5,137,3025,1
-1286.9146963568853,42.04465504116233,28.24392861871374,124750.9386448173,116754.61738699171,128949.03547064558,2,125,3021,1
-1299.3609256295601,48.88981824386445,28.179152178499095,126135.46910795146,117413.40489051344,125399.4297319813,2,145,3020,1
-1311.401413018144,56.129705721219324,27.700970771590633,127604.72270652794,118101.39489642608,121702.09097621436,4,125,3014,1
-1322.867756877266,63.68808089199738,26.767108379622314,129152.48687876888,118818.3658904828,117867.14586651242,4,148,2997,1
-1333.5887598816996,71.47946153813322,25.348026140410834,130770.80806529337,119563.16111367106,113907.60419141248,14,167,2988,1
-1343.3947251455295,79.4136681659824,23.426817633311344,132449.19025206848,120333.29970852807,109839.46079693259,23,176,2974,1
-1352.116985274479,87.399144871659,20.997078151015078,134174.0072084813,121124.65439278328,105681.80365900202,23,241,2959,1
-1359.5837851285698,95.34467004959606,18.059782635762343,135928.19023862222,121931.29181215483,101456.94447189526,27,229,2941,1
-1365.615941872077,103.15907475074144,14.621744363653573,137691.11815679132,122745.54997018361,97190.70125615268,26,275,2919,1
-1370.0253451136473,110.74929616984645,10.69742146778849,139438.651064413,123558.49564962,92912.81490970176,27,329,2884,1
-1372.6174602179728,118.01796408819236,6.3131726927393315,141143.28139013326,124360.79080814343,88657.25130705179,29,427,2791,1
-1373.1962549405284,124.86131693230645,1.5111073151975758,142774.32265906234,125143.59466803329,84462.31378616666,29,503,2716,1
-1371.570385662265,131.1674417536086,-3.65046221381544,144298.3154973662,125899.21150488176,80370.4319838048,35,656,2589,1
-1367.5613539205801,136.81395020101002,-9.101178837802692,145679.99545989218,126621.60099742656,76427.46389187375,32,732,2543,1
-1361.0125086461776,141.6666676432762,-14.762804072793184,146883.7696213756,127306.75225030955,72681.91283270757,25,919,2372,1
-1351.7973650519702,145.58718002827155,-20.5452341156548,147875.91503718277,127952.73847959681,69184.31805822585,31,977,2304,1
-1339.82758074724,148.45421974229504,-26.335363346846602,148627.79628551804,128559.4104550299,65986.52985668002,2,1129,2197,1
-1325.059464000736,150.19018925375443,-31.98924449133651,149119.04088435447,129127.7446069807,63140.975130410254,26,1221,2130,1
-1307.4957658571225,150.78210899506692,-37.333688538128456,149339.48776979625,129658.7080500143,60700.07001367573,29,1338,2038,1
-1287.1806099049593,150.2951697891332,-42.17455050472879,149290.05404040214,130151.71271394337,58715.48776418579,23,1408,1974,1
-1264.1901166400107,148.87658851934532,-46.30561922212125,148982.78361380153,130603.30547265203,57237.37505362469,33,1549,1842,1
-1238.6230782635046,146.7422021827186,-49.517054008289676,148439.63360141192,131006.57748676166,56313.78616522775,8,1635,1765,1
-1210.5934892932141,144.14456536390958,-51.60713318910289,147689.78404257388,131351.08177465975,55990.18259175292,3,1716,1692,1
-1180.227924787281,141.3363107063087,-52.39635410209974,146766.39353880662,131622.91074182568,56308.89076255511,17,1790,1617,1
-1147.6709148538034,138.54103859943186,-51.74120864283685,145703.57411132817,131804.91285818853,57308.378951508545,16,1807,1600,1
-1113.0959717412798,135.930962168207,-49.54872893079978,144533.47950362632,131877.199262769,59022.07590641001,18,1823,1581,1
-1076.7169225799912,133.6124535406139,-45.789261898780325,143284.01042185826,131817.91400776157,61476.936334170096,12,1866,1548,1
-1038.7955601167696,131.62457003403856,-40.501975749536584,141977.75045626573,131604.3296319164,64692.153291804425,13,1919,1495,1
-999.6439315617325,129.94878388637133,-33.792809519216235,140631.77105159944,131214.46697202016,68678.06782012527,13,1926,1488,1
-959.6219723071388,128.5226635498779,-25.82780280153307,139257.91601025456,130628.92728219228,73435.33027510592,1,1942,1480,2
-919.1291327431472,127.25349283645696,-16.8207394393013,137863.61319497484,129832.60347595034,78954.61144375903,0,2008,1423,2
-878.5881682226501,126.03256274706098,-7.013424293262778,136453.14370971217,128816.35565742222,85216.97273785273,0,2013,1417,2
-838.4275413923881,124.74852105360927,3.3453861072868203,135028.92926508244,127578.3197821629,92194.51451820342,7,2013,1419,2
-799.0674086522174,123.29811467873613,14.01757556248892,133592.5163670244,126124.20086596486,99851.30082030779,0,2013,1417,2
-760.905847333529,121.59612809618328,24.791815580231564,132145.3404693824,124466.4814014342,108144.90196661872,0,2011,1419,2
-724.3072431825387,119.58341426392964,35.49592106798676,130689.32477978064,122623.07849700072,117027.93296229563,0,2011,1418,2
-689.5967971142297,117.23023752002038,46.00065221074779,129227.274376515,120615.66615909498,126449.16082533891,0,2010,1419,2
-657.0582758115901,114.53606529238758,56.21621726141772,127763.15795686674,118467.57190750365,136354.70019187004,0,2014,1416,2
-626.9332901055833,111.52685923012675,66.08553390324904,126302.40902719487,116201.83781352335,146689.0608712749,0,2013,1421,2
-599.4227767368837,108.2476170801655,75.57704032743291,124852.1798936401,113839.85095964085,157395.8461761408,0,2009,1419,2
-574.6906182007139,104.74953134016951,84.6768012750403,123421.26158903653,111400.11210355358,168418.66697796015,0,2007,1419,2
-552.8711511560807,101.07329597353441,93.37559252468941,122019.6545440787,108897.22435223784,179701.92586701017,0,2007,1419,2
-534.0805141045646,97.23156417002016,101.64885298765263,120658.1558233872,106341.56913370104,191190.886735234,0,2009,1418,2
-518.42644939568,93.1984890320256,109.43813000764362,119348.26806903398,103739.59250158623,202831.37223139207,0,2008,1423,2
-506.01009430140454,88.91427092682518,116.64863074770044,118102.646250326,101094.74507554651,214569.68319639572,0,2009,1419,2
-496.9179439805892,84.30360540136158,123.16803320173064,116936.01587711718,98409.3764498608,226352.93629075508,0,2008,1423,2
-491.21049857324834,79.29658289340527,128.89404453052228,115865.89788834902,95687.14868094957,238129.28803364676,0,2010,1419,2
-488.9161584256833,73.8404874323509,133.75596154703544,114912.34759700054,92934.93814714543,249848.04497703328,0,2008,1417,2
-490.03077015009654,67.901584311126,137.73023956541775,114096.67574585209,90163.52961262844,261460.4392892045,0,2009,1417,2
-494.51838626041064,61.46230294455586,140.85093988330348,113439.92026171766,87387.03213713899,272920.660935777,0,2009,1422,2
-502.3121682019857,54.51710235051604,143.20595640162108,112961.48623723224,84621.21607744151,284186.5040114256,0,2009,1420,2
-513.3171138012148,47.068134613008084,144.91715364400417,112677.88722032793,81881.2425042106,295219.93381736876,0,2010,1421,2
-527.4142215381097,39.122207365302955,146.11731830039085,112601.92112493524,79179.86504587768,305987.3096379673,0,2007,1420,2
-544.4637285910915,30.689687751854358,146.93454362919923,112742.61960259282,76526.75829115234,316459.02142388263,0,2008,1419,2
-564.3063232569682,21.784302312350697,147.4834309030071,113105.71234638196,73928.57061084924,326609.13311026804,0,2009,1416,2
-586.7623213910373,12.423937687774984,147.86122055655258,113694.12490056748,71389.31729873833,336415.05679599225,0,2006,1422,2
-611.6303672413845,2.6343669055960213,148.14858793114396,114508.2024589667,68911.06139866893,345857.0999276926,0,2005,1419,2
-638.6883078441091,-7.543594265741403,148.41126729753066,115545.55636037009,66494.75446630926,354918.22444418346,0,2008,1417,2
-667.6959493312886,-18.046813863472845,148.69916663194198,116800.61700175356,64140.99343126699,363583.8999920322,0,2013,1421,2
-698.3987651623135,-28.787402644093277,149.04464597013592,118264.10661496791,61850.480736626276,371841.9769897532,0,2007,1419,2
-730.5332499248749,-39.656631922264985,149.46180967981454,119922.55567769356,59624.2382767768,379682.92237141833,0,2008,1418,2
-763.8320716430148,-50.53206931890273,149.94627030044504,121757.89669905466,57463.838544333914,387100.08884751704,0,2008,1420,2
-798.0284225010518,-61.28608071013686,150.4755416032397,123747.27277141371,55371.7939124549,394089.66389972786,0,2008,1417,2
-832.8625164540479,-71.79651354695551,151.0109051740806,125863.17667061601,53352.03115458341,400650.6045821772,0,2008,1417,2
-868.0887640170577,-81.9570441376703,151.50048738833783,128073.82712230564,51410.32574853976,406784.51564462046,0,2007,1417,2
-903.4811756699035,-91.68472389672627,151.8836350657466,130343.85413935613,49554.549623425126,412495.2801091092,0,2008,1418,2
-938.838866587603,-100.92636639927497,152.09725642968937,132635.47786862098,47794.63244747576,417788.642900425,0,2006,1419,2
-973.9902780635007,-109.6636584510692,152.0825733598188,134909.8168569094,46142.31181924694,422671.7138905,8,2006,1421,2
-1008.7927711943773,-117.91509162302647,151.79010219827504,137128.05395908988,44610.62001911826,427152.20511637273,3,2008,1417,2
-1043.1290352937667,-125.73482506530685,151.18267435548285,139252.7033080982,43212.958926060615,431237.5286602797,0,2008,1421,2
-1076.9025241144639,-133.20927900478605,150.23626601844697,141248.78738840373,41962.06237304999,434933.94858365814,7,2008,1419,2
-1110.0323471182048,-140.45134059090913,148.93769432997016,143084.6485982866,40869.155094225556,438245.9142717888,0,2008,1421,2
-1142.4482528392755,-147.59213742465784,147.2798548005108,144732.59747915398,39943.2287827299,441175.6505079428,0,2008,1418,2
-1174.0858962419013,-154.77247067789614,145.25683269104357,146169.34893986798,39190.55068786399,443722.92138355447,0,2006,1423,2
-1204.8826599862773,-162.13604938927483,142.85968026782385,147376.02761301916,38614.66083965509,445884.94620012364,0,2007,1423,2
-1234.7748604636952,-169.82429569121217,140.07237970246513,148337.87503243607,38216.80570003568,447656.5495272018,0,2008,1418,2
-1263.6956829433893,-177.9727978411603,136.86917205594474,149043.86861768985,37996.581229320334,449030.4028045697,0,2009,1419,2
-1291.5728958016184,-186.70993002736068,133.2148357747224,149486.28386146354,37952.70904533584,449997.2311234152,0,2008,1423,2
-1318.3267466234652,-196.15600356825922,129.06788002451427,149660.20211430438,38083.944286335485,450546.0992015314,0,2008,1422,2
-1343.8679621628833,-206.4206730187199,124.38533471324423,149563.0726392352,38389.863336818125,450664.7555358258,0,2000,1428,3
-1368.0963915659256,-217.5982102310555,119.12818168588528,149194.35910070201,38871.31121544396,450339.9420407335,0,2001,1425,3
-1390.9019319979072,-229.7621093886751,113.2672349028913,148555.17043912687,39530.60990325612,449557.72978453635,0,1999,1430,3
-1412.167021721456,-242.96109182895708,106.78829924041447,147647.89398360086,40371.62304835539,448303.8710968989,0,2000,1428,3
-1431.7697734381077,-257.217686817953,99.69550245865464,146475.8625066104,41399.66494926107,446564.09012028365,0,2002,1432,3
-1449.5884822706446,-272.5288692723662,92.01333851735824,145043.0126819371,42621.28037631669,444324.33849484427,0,1997,1430,3
-1465.5061283362454,-288.8670225624398,83.78779598218013,143353.66037758,44043.9266745231,441571.0779377219,0,1998,1430,3
-1479.4140560920828,-306.1801425626248,75.08538806483922,141412.5662682576,45675.501396366424,438291.57873257337,0,1992,1434,3
-1491.216689196157,-324.39126206883975,65.9893114694836,139225.28676624745,47523.64726210447,434474.20990117517,0,1977,1439,3
-1500.836620895711,-343.39705323362296,56.59472831701639,136798.74044226806,49594.9364754238,430108.78455819964,0,1976,1449,3
-1508.2183728979855,-363.06646806018045,47.00530920068569,134141.9648694128,51894.06685246899,425186.94113562483,0,1989,1439,3
-1513.3313476216601,-383.2402826386603,37.33095042271423,131267.00587254233,54423.07616710376,419702.4529886866,0,1985,1444,3
-1516.1716239368097,-403.7301140190073,27.686348927989904,128189.75703822238,57180.62357795908,413651.5773153504,0,1959,1464,3
-1516.7612774041402,-424.3152571209614,18.189541367997823,124930.55636620022,60161.43938797226,407033.53463549237,0,1965,1461,3
-1515.145573998142,-444.7378509296228,8.9592449560781,121514.52698200168,63355.93986795987,399851.01017844974,0,1967,1452,3
-1511.3899606692516,-464.6982290655288,0.11205949355328876,117971.78108333815,66749.91947556537,392110.7560100138,0,1955,1462,3
-1505.5785435690102,-483.8533084234742,-8.23967793228664,114337.36560838614,70324.39279895744,383824.3159508215,0,1946,1474,3
-1497.814173956416,-501.8200481858507,-15.99040099034375,110650.72061654879,74055.75198186615,375008.659866737,0,1959,1462,3
-1488.2191464819668,-518.1822584185517,-23.04404803321015,106954.86668942853,77916.148000114,365686.7889028018,0,1952,1469,3
-1476.9352694922584,-532.499474053858,-29.31636147280664,103295.37683548007,81874.20663282445,355888.2848677849,0,1942,1477,3
-1464.1231338911125,-544.3185179523097,-34.73683987103762,99718.86253875488,85896.375897883,345649.55067533365,0,1949,1463,3
-1449.9614070529412,-553.1847670539904,-39.249651052940685,96271.34960093291,89948.46461665178,335014.00867591996,0,1965,1459,3
-1434.6444440428863,-558.6521331043397,-42.81238331830203,92996.73349204361,93997.03832733435,324032.34206305124,0,1956,1466,3
-1418.3755408150064,-560.2958169301851,-45.39233893483145,89934.89632198728,98011.0007639952,312762.38965120784,0,1960,1461,3
-1401.3595904972221,-557.729202252626,-46.960084871952276,87119.92369207233,101963.12542118634,301269.02696851344,0,1970,1456,3
-1383.80095029006,-550.6268256774223,-47.47831391186722,84578.99359193532,105831.25090547142,289624.2068236415,0,1954,1463,3
-1365.903958492015,-538.7529543326227,-46.886652842340965,82331.56104286059,109599.32223678089,277906.5526263259,0,1951,1466,3
-1347.8705689964163,-521.9836552883844,-45.09211981427973,80388.642411545,113257.6461917427,266200.5805019227,0,1954,1465,3
-1329.894403762519,-500.313100658083,-41.97884639854456,78752.46428301699,116801.07095976446,254595.3734229631,0,1953,1468,3
-1312.1538313413803,-473.8503058349677,-37.438421955560564,77416.65159198846,120225.00042516435,243182.04779281083,0,1947,1468,3
-1294.8074445068808,-442.81699898061675,-31.404268145009826,76367.0894336018,123521.073978154,232051.0217018318,0,1965,1462,3
-1277.9916047476054,-407.5498785511854,-23.876113462940776,75583.59447709222,126674.4026095809,221289.79323591955,0,1972,1485,3
-1261.8175432465373,-368.50393121720305,-14.93626625624192,75042.17650248425,129662.65772464745,210980.36080062162,0,1973,1447,3
-1246.3692746393879,-326.25363182866346,-4.7604824927494676,74717.04775086258,132456.56006846865,201196.75011908164,3,1991,1439,3
-1231.7040269218303,-281.490950560681,6.377420524946045,74581.78573888865,135021.93469132046,192003.3402966691,0,1993,1434,3
-1217.8543929956277,-235.02221315767585,18.106747309564593,74609.83483636167,137323.45282863468,183453.29777485738,104,1995,1433,3
-1204.8316157076586,-187.76421527632436,29.97096555487175,74774.51291489118,139328.8906366931,175587.30538970107,298,1993,1435,3
-1192.629410003842,-140.7325910649008,41.45188352125335,75048.56342845589,141013.53317960651,168433.13684341047,614,2012,1419,3
-1181.2260033632504,-95.01416825718333,52.000833507262556,75403.72594889281,142365.61282204048,162005.62581549058,1083,2013,1419,3
-1170.5819591365162,-51.702572337400596,61.07980718820101,75811.08507154374,143391.6253970916,156306.8792107222,1501,2013,1416,3
-1160.6345775408492,-11.771685597431008,68.22635123204559,76243.13370170846,144119.36652834545,151326.7966876139,1737,2016,1415,3
-1151.2915608350668,24.084155444338197,73.13245159456216,76677.92847555266,144598.2361316987,147043.50296038913,1916,2013,1419,3
-1142.4272500793538,55.55919572835665,75.70496576237882,77103.7483519183,144896.6515438988,143423.88959067452,1997,2013,1415,3
-1133.8903696495302,82.72963158732776,76.08364548364126,77521.72068196644,145094.79706007533,140425.42894525648,2182,2013,1417,3
-1125.5305481662228,105.94258636906588,74.6106901353376,77945.05093751964,145272.40479957254,137999.72159854666,2295,2011,1415,3
-1117.233350504405,125.67817348808654,71.76653017426554,78395.22959435525,145496.42239398963,136096.3346767487,2275,2011,1419,3
-1108.9460842841202,142.44137660216145,68.09190887396153,78896.36474169759,145813.01775714703,134665.46548886274,2268,2013,1417,3
-1100.6883113313027,156.68241062740847,64.10884563647319,79469.0268619812,146243.41112938413,133659.66244273813,2354,2016,1417,3
-1092.547623152214,168.74816820588796,60.26104363608782,80125.72384568804,146782.57723391292,133035.01690391882,2358,2017,1419,3
-1084.6574235498927,178.88171591583512,56.88456046583171,80869.28313076601,147401.61369097402,132751.38284400493,2361,2037,1421,0
-1077.1588707560993,187.25890880754005,54.196453982061534,81693.58179998229,148053.7847725599,132771.47989267803,2389,2019,1418,0
-1070.163782519659,194.02776880517436,52.29413016848761,82585.6480523665,148682.055263055,133059.58265121272,2493,2028,1417,0
-1063.7320259192688,199.32798718772543,51.168746991237924,83528.55402908374,149226.81793143926,133580.5401102243,2485,2029,1417,0
