AccX (g),AccY (g),AccZ (g),GyroX (deg/s),GyroY (deg/s),GyroZ (deg/s),Heel ADC0,MidFoot ADC1,Toe ADC2,LABEL
-903.8075752538296,111.65507230358769,34.4440986487949,257478.33441174144,126230.06883569644,185343.19224798807,1966,2045,1451,4
-911.9984048353326,109.8924965509358,43.795419521137156,257135.95227261135,127461.16891972114,186193.5184621994,2041,2045,1451,4
-920.1312781167403,108.04587000547073,52.79493447582596,256866.85169641324,128652.3330990085,187046.37551000158,2081,2041,1455,4
-928.1188181918969,106.11606300500661,61.28547895974652,256684.05384967194,129788.31381159303,187894.83255569747,2122,2047,1451,4
-935.8783881209513,104.10818877088354,69.13455270154452,256598.74936112564,130855.79370355223,188732.7499738504,2208,2060,1451,4
-943.3366943217791,102.0324580049991,76.24306450101173,256619.91318333943,131843.74586803906,189554.9042643298,2260,2069,1451,4
-950.433634548567,99.9040589964556,82.55031511391637,256754.05224151182,132743.4561424627,190357.05844463152,2264,2080,1453,4
-957.1228487547398,97.74224848690507,88.03238741129663,257005.1029841668,133548.25924958795,191135.98813421844,2279,2093,1453,4
-963.3695345377015,95.56931950778055,92.69593831990042,257374.45169560812,134253.23012409278,191889.48178649895,2284,2081,1453,4
-969.1475454369618,93.41007138217614,96.57168229404701,257861.01483491142,134855.0310226469,192616.275489829,2319,2091,1453,4
-974.4372524630995,91.29161652442279,99.70927917588054,258461.3179289599,135351.9817831435,193315.88233478458,2325,2089,1454,4
-979.2251519660354,89.24252807977958,102.17224151214721,259169.54211750237,135744.30687046103,193988.378486414,2371,2082,1451,4
-983.5051169900429,87.29109510259701,104.03227557842592,259977.53255643166,136034.3779958902,194634.24022874975,2377,2086,1451,4
-987.2797017754203,85.46352274460367,105.36426136442138,260874.81019401888,136226.76666026632,195254.24743175777,2334,2077,1455,4
-990.5603626519844,83.78211174875918,106.2418566986088,261848.7641072419,136328.00721456896,195849.41540920144,2334,2070,1452,4
-993.3669829877065,82.26288972263725,106.73274605233287,262885.1428380697,136346.07888210053,196420.9365063087,2299,2080,1453,4
-995.7270880235367,80.91345274905146,106.89425506087765,263968.6616283847,136289.8008136951,196970.11362838713,2268,2080,1454,4
-997.6744107349639,79.73205834783504,106.77058853463724,265083.6338923504,136168.29922036396,197498.26601024115,2236,2081,1454,4
-999.2468297528175,78.7077942228789,106.39180046359265,266214.74818249943,135990.53651816153,198006.61517725576,2220,2069,1452,4
-1000.4844889689471,77.82138136596939,105.77456698111396,267347.820091205,135764.96034215786,198496.17169871283,2222,2100,1455,4
-1001.4284657613501,77.04708232719409,104.92533142424288,268470.3273931775,135499.311124532,198967.64097179443,2221,2112,1454,4
-1002.1195643737718,76.35620052283846,103.84544273491636,269571.8347337637,135200.4814908477,199421.35413535952,2190,2111,1458,4
-1002.5970651317218,75.72110472831554,102.53607635355385,270644.2664419272,134874.39533512748,199857.21647286348,2144,2112,1453,4
-1002.8975681498794,75.11837879670318,101.00151772650099,271681.85840913974,134525.97420256832,200274.6952612619,2132,2111,1457,4
-1003.0540838895413,74.53083443646375,99.25161106684111,272680.8146656107,134159.21501676674,200672.880140935,2109,2115,1457,4
-1003.0955904093424,73.948391848474,97.30381397200166,273638.79877885047,133777.3563210579,201050.58473425126,2034,2121,1456,4
-1003.0469297994432,73.36781842236749,95.18425313728466,274554.31062270555,133383.1183710275,201406.46624218958,1998,2108,1457,4
-1002.9286627565211,72.79163558904543,92.9275765021332,275425.9776929089,132978.9943231616,201739.1890310435,1950,2106,1456,4
-1002.756956318309,72.22655609817754,90.5758104467999,276251.9377585198,132567.5098812815,202047.5936157399,1933,2112,1455,4
-1002.5440760230854,71.68119698770587,88.17577295666509,277029.4926002844,132151.37214789272,202330.82490709776,1896,2120,1455,4
-1002.2996931765786,71.16270559310507,85.77468595733603,277755.01944272174,131733.509948243,202588.44125697648,1850,2128,1456,4
-1002.032348477281,70.67338148997807,83.41563729754563,278424.04982059577,131317.05209956315,202820.4897198981,1816,2144,1457,4
-1001.7504405648679,70.20873903813602,81.13469004765463,279031.54501518304,130905.25704383421,203027.511070129,1775,2140,1455,4
-1001.4628044933597,69.75713072853955,78.95945615804074,279572.4116133994,130501.38616644152,203210.48954408604,1732,2154,1459,4
-1001.1789853671611,69.30050393801723,76.90852447328075,280042.0632801771,130108.55947523568,203370.7753245069,1731,2163,1457,4
-1000.9089374705669,68.81625334344012,74.99136240224762,280436.8601434043,129729.5983386022,203509.9887342225,1737,2168,1457,4
-1000.6620263919758,68.28006556473919,73.20828565148354,280754.49256589904,129366.82114923887,203629.91521836573,1704,2182,1466,4
-1000.4458542254076,67.66872974567323,71.55076174483894,280994.28735135804,129021.86842912924,203732.41628215712,1674,2187,1465,4
-1000.2656155003261,66.96187476338402,70.00299773340325,281157.32136664365,128695.65878921571,203819.3724242982,1630,2178,1467,4
-1000.1241563163635,66.14274495146631,68.54517521265234,281246.31597783486,128388.47349608415,203892.65089933772,1625,2192,1467,4
-1000.0224544289242,65.19854072484688,67.15710404397711,281265.3488156634,128100.1209373513,203954.0859547316,1602,2188,1468,4
-999.9602786517357,64.12056863190854,65.82094650871773,281219.51585743274,127830.10619291276,204005.45989934925,1550,2211,1634,4
-999.9369068098507,62.904069685611134,64.52277495475394,281114.6491635199,127577.7289315201,204048.48134604047,1479,2227,1633,4
-999.9515943059295,61.54759398029121,63.25296658963512,280957.06299464795,127342.10269983782,204084.7684419038,1459,2236,1632,4
-1000.0035122692788,60.05233768934127,62.00578643318913,280753.3448663463,127122.15122923668,204115.8352896208,1416,2252,1633,4
-1000.091289327584,58.421857834199585,60.778923616261054,280510.2419393197,126916.63464333353,204143.0540249325,1367,2281,1639,4
-1000.2125186872831,56.66212443683284,59.57326343869777,280234.6094848905,126724.20981021963,204167.5744247833,1329,2286,1634,4
-1000.3636592653555,54.78176202701178,58.39270828261982,279933.3741072438,126543.49420041483,204190.23100292962,1279,2310,1634,4
-1000.5406393084448,52.79222483947979,57.243592039526675,279613.4641251086,126373.10492256792,204211.47182919373,1225,2298,1638,4
-1000.7398552833631,50.70762269986101,56.13344630518218,279281.67330613645,126211.6621842676,204231.30795073046,1175,2299,1634,4
-1000.9588171107398,48.54434242568705,55.06958567609878,278944.5112924825,126057.76732691942,204249.28423509005,1140,2310,1636,4
-1001.1960655978726,46.32075628320642,54.05772488399972,278608.0786105261,125909.96233256957,204264.4845412701,1064,2328,1642,4
-1001.4505232615816,44.05698724641019,53.10039876408823,278277.9388720796,125766.67042384601,204275.56053884872,1009,2345,1642,4
-1001.7206805446264,41.77464682381461,52.195505299438004,277959.0145323834,125626.15506502101,204280.75763374518,957,2353,1639,4
-1002.0039925903428,39.49620648621411,51.33560056156336,277655.5413443056,125486.55998443216,204277.93900955943,918,2404,1646,4
-1002.2965940625106,37.24346263828036,50.508414631315205,277371.0514086225,125346.04043905156,204264.62904206407,890,2412,1639,4
-1002.5933325860972,35.035585818212446,49.69865697623589,277108.363525922,125202.92592847082,204238.0765265129,832,2445,1639,4
-1002.8881484080085,32.887820656216725,48.89059161129585,276869.57071003946,125055.85731753199,204195.3328193789,854,2441,1640,4
-1003.1746942417568,30.811046822875966,48.07066212376382,276656.0066963338,124903.87829497874,204133.34570304153,800,2461,1641,4
-1003.4470091042892,28.81199693832143,47.229460120420065,276468.21610141546,124746.45944060001,204049.04734513385,739,2477,1648,4
-1003.7000600090374,26.89394166511033,46.3625846190475,276305.96615942643,124583.43990844944,203939.41941927635,702,2473,1653,4
-1003.9299786980282,25.057278199257194,45.470421082185666,276168.29333036847,124414.92012682001,203801.55314642077,659,2489,1648,4
-1004.13404801529,23.29940557622827,44.55701509546738,276053.5683856393,124241.15498713464,203632.73468381993,599,2511,1651,4
-1004.3106395623241,21.614020593999882,43.62830847625023,275959.5778407907,124062.4727870585,203430.56563250316,579,2538,1647,4
-1004.4591969360064,19.99058467912725,42.690620702140855,275883.62022830563,123879.2430554763,203193.08031453,590,2548,1652,4
-1004.5803318364236,18.414391499295384,41.750231341802284,275822.6450647929,123691.8929782612,202918.80405402588,539,2560,1650,4
-1004.6760599283017,16.86725095983587,40.813673945053516,275773.45288158336,123500.92667956254,202606.74445613922,441,2589,1648,4
-1004.7499754889985,15.32856507552072,39.887896610617744,275732.8932535474,123306.9097803737,202256.36171863752,423,2601,1648,4
-1004.8070832575761,13.776357715070647,38.98000667981658,275698.0089983175,123110.40390659762,201867.55425749964,466,2600,1646,4
-1004.8533536699839,12.188088484170603,38.09653115837112,275666.14709893893,122911.8639111313,201440.65529228287,411,2608,1649,4
-1004.8953753026921,10.541255367072392,37.24247255817097,275635.04939498135,122711.55952360942,200976.44065436214,428,2623,1653,4
-1004.9402505443487,8.813697178674783,36.42086839332881,275602.9353146306,122509.56536987107,200476.15782652955,393,2643,1647,4
-1004.9955456720182,6.983761263167996,35.63316121596654,275568.60194280016,122305.80290489882,199941.57791889558,394,2655,1651,4
-1005.0690930052932,5.030488429373662,34.88004381691051,275531.5172033188,122100.1037958474,199375.06585031885,315,2680,1655,4
-1005.1685230523436,2.933632317577291,34.16239095769194,275491.86262613646,121892.272073584,198779.60367403473,323,2699,1655,4
-1005.300578569872,0.6737318833181046,33.48211673708058,275450.5312174394,121682.12940551573,198158.68384456198,270,2701,1655,4
-1005.4705838227073,-1.7671428533004174,32.8427698896014,275409.10660651565,121469.54022014854,197516.1172755065,298,2703,1663,4
-1005.6824425023028,-4.403793668156957,32.24962556939747,275369.809651967,121254.41480448912,196855.8311396149,243,2719,1663,4
-1005.939096227,-7.245870330239267,31.70928623685926,275335.38501077774,121036.69088494338,196181.65232314696,183,2723,1681,4
-1006.243014342553,-10.296314136212608,31.229111858016402,275308.9562840782,120816.3181047113,195497.12772654614,187,2739,1692,4
-1006.596299331508,-13.551230773701908,30.816785973279625,275293.8826490615,120593.27186614714,194805.42817631274,129,2742,1701,4
-1007.0002466426317,-17.00131238332599,30.480123204575257,275293.6064836116,120367.58998757166,194109.28715131464,181,2776,1699,4
-1007.4548003208023,-20.63372512335581,30.227076413540896,275311.5112142451,120139.41486599334,193410.96801482572,113,2772,1703,4
-1007.9588814971049,-24.433593848705076,30.06583473707841,275350.819563319,119909.03409135962,192712.25872851105,96,2780,1700,4
-1008.5118173014367,-28.385314079732414,30.005064335806626,275414.52256568184,119676.91453754275,192014.4382742275,104,2789,1701,4
-1009.1147591229334,-32.47357382013027,30.054316850297038,275505.3295686498,119443.72401452195,191318.22749711788,67,2808,1703,4
-1009.7711129315287,-36.68357973638074,30.224282367892425,275625.62547374016,119210.32352472494,190623.76933727338,35,2812,1707,4
-1010.4862357282017,-41.00082563891757,30.526643854187753,275777.4149515653,118977.72062353394,189930.63528551627,31,2819,1707,4
-1011.2670667959928,-45.410941953793156,30.97363787402683,275962.26202763023,118747.01555310929,189237.87277150273,49,2830,1706,4
-1012.1218666797953,-49.899696245083035,31.57745302041667,276181.2414975957,118519.36356821319,188544.11742717156,34,2850,1703,4
-1013.0600356617296,-54.45313447852508,32.349758017152624,276434.9095667191,118295.93871047598,187847.7568427484,21,2870,1713,4
-1014.0921974055034,-59.05789283459012,33.30189243021956,276723.3173561014,118077.9006885397,187147.11378625876,17,2891,1708,4
-1015.2305992968074,-63.70142866624998,34.445583594300615,277046.07300544163,117866.37677189171,186440.61732355706,19,2898,1707,4
-1016.4896665127106,-68.37190569156299,35.79329029407139,277402.4078550379,117662.44134284553,185726.93499003112,14,2934,1709,4
-1017.8867606868793,-73.05791015595615,37.35758160666955,277791.23249954625,117467.04957260459,185004.99702983868,26,2947,1711,4
-1019.4429793509303,-77.74773278226289,39.1496420148942,278211.2053629419,117280.90555990228,184273.85256823414,20,2966,1708,4
-1021.1834434647892,-82.42767014754139,41.177556240704995,278660.79456881987,117104.32467705617,183532.443921912,5,2982,1720,4
-1023.1370684862073,-87.07991044676426,43.44517482996732,279138.3209632817,116937.15697782386,182779.39622663765,0,2998,1727,4
-1025.3362687940983,-91.68103763351036,45.95186678800311,279641.99317656923,116778.7706839824,182012.81581707235,0,3015,1719,4
-1027.817031087333,-96.20154614721125,48.69287733262804,280169.8936320273,116628.08407055793,181230.14690028407,0,3056,1719,4
-1030.6195907809215,-100.60641145674484,51.65994278957356,280719.88236559473,116483.64329785192,180428.1345494468,0,3049,1745,4
-1033.7887531146978,-104.8564549316577,54.842056483844424,281289.46942681214,116343.70965187906,179602.83740501344,0,3038,1750,4
-1037.3727123942574,-108.90977409099182,58.22621327907686,281875.72708570445,116206.31012139069,178749.66590544546,0,3021,1769,4
-1041.420935550854,-112.72295194611193,61.79802794370717,282475.29252403136,116069.26945693974,177863.45085030145,0,3007,1778,4
-1045.9824252746607,-116.25246929230346,65.54251119843198,283084.47220037563,115930.29113501866,176938.5156264721,0,3054,1774,4
-1051.1055571761108,-119.45652990846048,69.4457159744075,283699.3680195473,115787.09262447753,175968.7487658358,0,3050,1787,4
-1056.840002604392,-122.29662503461188,73.49761837587724,284315.94288135745,115637.53121337261,174947.6780826461,0,3043,1803,4
-1063.2391334566819,-124.73857816475402,77.69385307203429,284930.0416581603,115479.65104309637,173868.52917702578,0,3070,1803,4
-1070.3597386587946,-126.75374766072147,82.0331992066235,285537.4537814454,115311.5653881626,172724.23613585142,0,3064,1819,4
-1078.2569658711634,-128.31870756864797,86.51330808272725,286134.0916434903,115131.18259207558,171507.3878481421,0,3113,1828,4
-1086.9772479859846,-129.41208745632102,91.12943924996395,286716.2303801992,114936.01082713256,170210.17567348067,0,3172,1818,4
-1096.555308006979,-130.01186992376645,95.87588433537009,287280.6883141843,114723.26728270999,168824.38151441448,0,3167,1821,4
-1107.0161296413294,-130.09479730204816,100.74773668893636,287824.88136421586,114490.1798500713,167341.3798398188,0,3225,1814,4
-1118.3770932722198,-129.6359645368338,105.74223140880933,288346.733327613,114234.1983896349,165752.1959830758,0,3219,1812,4
-1130.6478620029025,-128.60852295778207,110.85960310410853,288844.50024475774,113953.0421196311,164047.64155309377,0,3219,1836,4
-1143.8291386017816,-126.98450435377963,116.10413126485425,289316.591092782,113644.68768726998,162218.47451324828,0,3201,1840,4
-1157.9109875557147,-124.73620874664022,121.4851454912926,289761.39176099986,113307.35628589104,160255.60108730328,0,3212,1844,4
-1172.8706687111755,-121.83758604792877,127.01604838784084,290177.0544869177,112939.46465582305,158150.35819868004,0,3238,1855,4
-1188.6703329354066,-118.26647417669774,132.7104438859081,290561.2720910332,112539.51434353425,155894.85588327976,0,3238,1862,4
-1205.25473217646,-114.0079131764357,138.5769348631823,290911.1297096176,112105.98443193325,153482.35434519046,0,3237,1881,4
-1222.548604202645,-109.0571742103516,144.61435483710423,291223.1036412216,111637.29013817947,150907.61730266328,0,3244,1891,4
-1240.453770910267,-103.42201098183585,150.80778047243425,291493.1924823486,111131.80833213397,148167.1802299555,0,3250,1892,4
-1258.846582451051,-97.12495098221163,157.12529880506148,291717.1035123273,110587.97432838971,145259.568832838,0,3255,1887,4
-1277.5759694554313,-90.20601289364987,163.5156130491285,291890.44970096584,110004.45146727614,142185.5073935841,0,3244,1897,4
-1296.461755199163,-82.72502840053855,169.90682876414542,292008.97628357087,109380.34310456054,138948.11468176535,0,3221,1914,4
-1315.2943981803144,-74.76197987758349,176.20813169734492,292068.8447943359,108715.42549218117,135553.05231366443,0,3195,1894,4
-1333.8381315107963,-66.4148725442535,182.31575142163146,292066.9480484572,108010.40100759908,132008.58527650347,0,3181,1897,4
-1351.836914462624,-57.796288883661546,188.1214088986498,292001.079492004,107267.13118880539,128325.64922518245,0,3233,1919,4
-1369.023286194478,-49.02822985565741,193.52104698418557,291869.64874682034,106488.70319597416,124517.92136830023,0,3134,1916,4
-1385.1308315355243,-40.2342420627556,198.42259433269933,291670.83114519017,105679.17962296905,120601.75181175525,0,3056,1915,4
-1399.9048125668248,-31.532205974845667,202.74907585338497,291401.51085609006,104843.07790684802,116596.10684771658,0,3065,1910,4
-1413.1050511547528,-23.032699465744656,206.43362177407235,291056.4379755368,103984.70875337765,112522.69099376918,0,2977,1913,4
-1424.5031247994502,-14.843487244526882,209.40897610023657,290627.72007545875,103107.54015793955,108406.14036941386,0,2882,1906,4
-1433.8789478127835,-7.076631295799792,211.59945863393943,290104.7269163978,102213.97954144322,104274.27829553351,0,2809,1910,4
-1441.019906379739,0.14608547798755334,212.92176821373053,289474.5154102638,101305.93201004129,100158.37557487442,0,2751,1902,4
-1445.7236523410475,6.691722851558414,213.2931706879661,288722.6966867627,100385.98141315891,96093.22672819265,0,2637,1884,4
-1447.8035165613273,12.417675970670135,212.6405421575396,287834.4897941244,99458.55333338561,92117.16245907686,0,2465,1868,4
-1447.0965846455717,17.17438510078143,210.90717836826602,286796.0032377133,98530.51414245447,88272.10263767272,0,2437,1870,4
-1443.475009618558,20.810136091101583,208.05801439361832,285595.969481998,97611.16039734149,84603.47336142184,0,2227,1845,4
-1436.8566058115775,23.17917455235106,204.08259682561388,284227.6605902708,96711.81852077568,81159.97585601915,0,2156,1815,4
-1427.2098370371043,24.155575104945072,198.9945438650372,282690.8140580345,95845.07222943337,77993.0077851701,0,2059,1641,4
-1414.553189346421,23.655291773996755,192.82784367986818,280993.7392244905,95023.56381164987,75155.38220899948,6,2069,1627,4
-1398.951103948338,21.661367099347796,185.63245178974122,279155.1657764712,94258.79171024132,72699.71163306884,1,2051,1598,4
-1380.5040971982044,18.24745564340381,177.47351817967345,277205.2368694523,93560.38610643365,70676.72196272631,8,2134,1638,4
-1359.3292127333984,13.599622847537562,168.43752682154914,275185.74629882094,92935.8561033237,69133.23766083653,3,2189,1766,4
-1335.5378013068557,8.028864029417646,158.6418790461393,273149.8373977257,92390.59349331405,68110.39983682286,0,2226,1764,4
-1309.2217974796247,1.9599376642204436,148.23961442482633,271160.6861564408,91927.73677370985,67643.00941643292,0,2207,1742,4
-1280.4492070971148,-4.106363819262759,137.41809219339427,269288.81365358393,91547.53302500109,67759.94775987898,5,2117,1563,4
-1249.2664167734174,-9.641795558000846,126.39632632433047,267608.79943030607,91246.44534369487,68485.0965115101,0,2035,1530,4
-1215.7104699918946,-14.141454194581875,115.41841757314694,266195.34640741866,91016.58217240778,69838.33147819515,0,2043,1503,4
-1179.8325703726896,-17.18072073801863,104.73820344468686,265117.7449029172,90845.73635802767,71836.31096694103,1,2047,1453,4
-1141.7243274422235,-18.463179392913318,94.59913181435921,264433.9413645671,90718.1031366883,74492.69275385347,0,2039,1452,4
-1101.5351912023675,-17.836304131993106,85.21373721190237,264185.98348775366,90616.0263300042,77817.58561734736,1,2027,1452,4
-1059.4780418484145,-15.27734439040436,76.74396839577113,264396.9635745115,90522.90875373481,81816.532218659,0,2022,1453,4
-1015.8275742217742,-10.86995353414303,69.28991444641497,265069.88512542826,90426.19947839656,86489.55335482811,0,2021,1453,4
-970.9148855165587,-4.784472915529675,62.896548199521646,266189.45524001314,90319.18976387438,91830.7705106593,0,2018,1452,4
-925.1194262323961,2.739616903178273,57.57858534456004,267726.41260481527,90201.4690740765,97828.80375435344,0,2012,1453,4
-878.8609753411472,11.413423102535704,53.35007289804125,269642.16284741333,90078.3077638402,104467.45229265925,0,2010,1451,4
-832.5887211243095,20.92518679075936,50.242194087928794,271892.1798745348,89958.8349272316,111726.23880284166,0,2010,1451,4
-786.7623788283886,30.9728506654262,48.304304627184166,274428.5430649135,89853.08471991331,119580.9313323173,0,2010,1452,4
-741.8324131948632,41.28873501491338,47.5930799806804,277201.72803374595,89769.13337760032,128003.78636360487,0,2012,1452,4
-698.2260167535185,51.648298137891175,48.154516736680925,280161.6256452249,89711.66683833841,136963.39026578286,0,2010,1455,4
-656.3356296320421,61.86938319842297,50.00292795931085,283258.5712601222,89682.02519844007,146424.68844723582,0,2009,1454,4
-616.5113698322548,71.80771610606266,53.106537059837,286444.630794089,89679.08805682092,156349.3654605836,0,2008,1455,4
-579.0611329025176,81.35000588425734,57.38778141759138,289674.93434651324,89700.6252648016,166696.6875342866,0,2008,1452,4
-544.2558227226511,90.40599113272118,62.73390130090506,292909.00915550755,89744.84777184096,177425.06138658285,0,2009,1454,4
-512.3365276303855,98.90109096297371,69.00954277800095,296111.65394024603,89811.56968671002,188493.35991897757,0,2010,1454,4
-483.5216285358415,106.7708853923659,76.06849235900982,299253.07296774536,89902.59029886135,199861.06981260583,0,2010,1451,4
-458.011135920373,113.95800403288895,83.76233541202393,302308.67472067976,90021.55258792052,211487.65051800277,0,2011,1455,4
-435.98593262347697,120.41071428796938,91.94507807823094,305258.9412101241,90173.58292272074,223331.8356608698,0,2010,1451,4
-417.60252225136,126.08182920930454,100.47624064701947,308089.4589340881,90364.848723342,235351.2607234346,0,2010,1452,4
-402.98787705917596,130.92757136502155,109.2237117453218,310790.89990818716,90602.25135690346,247502.19302032853,0,2010,1454,4
-392.23709674935054,134.90729990282003,118.06672781056483,313358.66679746285,90893.37599560773,259739.3322675598,0,2010,1455,4
-385.4124054022091,137.98502055638224,126.89955470881972,315792.17585769563,91246.57045338275,272016.13904844224,0,2011,1452,4
-382.54295755562214,140.13220519275515,135.63434403481284,318093.9438944962,91670.95688944316,284285.30378816096,0,2010,1451,4
-383.62600239622077,141.3309778044817,144.20204850843268,320268.5885969403,92176.25886889717,296499.098889699,0,2011,1451,4
-388.6284491884963,141.57704350896023,152.55267360061103,322321.7912265441,92772.44537924073,308610.1713764551,0,2010,1452,4
-397.48776337274654,140.88111904377547,160.65585743034825,324259.38386866846,93469.3026806658,320572.40004755004,0,2011,1454,4
-410.1129232425261,139.26771420985915,168.50185651642263,326086.6777755076,94275.96188843604,332341.49781378015,0,2009,1453,4
-426.38636083593525,136.77170388110284,176.10246183589953,327807.9402411025,95200.30220667395,343875.947484194,0,2009,1451,4
-446.1658085641939,133.4344394447096,183.4900532691138,329425.9373708098,96248.31131161065,355137.8528230584,0,2009,1452,4
-469.2856347789439,129.30008876250207,190.71268818773942,330941.5650938712,97423.60511476277,366093.1603115165,0,2009,1452,4
-495.55911767123405,124.41164730510242,197.82564617248363,332353.5763001569,98727.20032371455,376711.74046178267,0,2010,1452,4
-524.781331277316,118.80772257826105,204.88300829066452,333658.3497998259,100157.52028123218,386967.28113464516,0,2008,1452,4
-556.7322682687667,112.521528813478,211.93177682264746,334849.6538591811,101710.6200619164,396836.8090505163,0,2008,1453,4
-591.181193591401,105.58099938294829,219.00801576231544,335918.426667381,103380.58314623707,406300.3067112959,0,2009,1454,4
-627.8904013783124,98.00830961479119,226.13457404088206,336852.62051573617,105159.87280900971,415340.37749750627,0,2009,1452,4
-666.6170720320658,89.81789373438454,233.32061157855068,337637.16110028984,107039.5419516817,423941.75103410025,0,2010,1452,4
-707.114953616108,81.0128844573622,240.5619995911897,338254.0379200231,109009.43699139336,432090.88302861893,0,2009,1453,4
-749.135075981727,71.58169949614668,247.8407858504788,338682.4390132907,111058.37383172661,439775.54227549944,0,2009,1452,4
-792.4248139947441,61.49585905255806,255.12277533501822,338898.91462481837,113174.28547402093,446984.28818318754,0,2009,1451,4
-836.7276425336045,50.708006182697154,262.3541407188534,338877.67426074954,115344.5273239476,453706.1617796518,0,2009,1452,4
-881.7837043338511,39.150163121203796,269.4593997894887,338591.0221495963,117556.30598362038,459930.51212806517,0,2008,1454,4
-927.3313125022754,26.73335843553322,276.3436632163357,338009.9966023674,119797.172074313,465646.8045020794,0,2008,1453,4
-973.1110095245139,13.348800259481163,282.8998781282804,337105.34844450816,122055.63691467275,470844.5890014129,0,2008,1452,4
-1018.8695073581911,-1.1295728855356295,289.0174992312018,335848.6785739487,124321.63714391305,475513.4676178351,0,2009,1455,4
-1064.3614217837417,-16.841207588533347,294.589784729592,334213.5875967284,126586.53535194998,479642.8727226104,0,2007,1452,4
-1109.3510372243322,-33.934092401718715,299.520369156464,332176.9526875989,128842.74835323302,483221.8593007905,0,2008,1452,4
-1153.6132842268491,-52.559529129661215,303.7282383168673,329720.1839347994,131083.18791939248,486238.9234996819,0,2009,1452,4
-1196.9321860798452,-72.8663535421756,307.1492522199548,326830.24169916596,133300.6039580797,488681.7636539698,0,2009,1453,4
-1239.0984829796942,-94.99410516292191,309.73503643253423,323500.48706925265,135486.92590686592,490537.1135108754,0,2008,1454,4
-1279.9068684952977,-119.06579774139688,311.45119688196297,319731.3793866254,137632.7419762178,491790.65921081504,0,2008,1454,4
-1319.15291022514,-145.18099759952497,312.27596642665554,315530.8063974479,139727.10361530527,492426.97868155706,0,2007,1455,4
-1356.6314393124574,-173.40894327195338,312.1993710305962,310913.95339912997,141757.72424141964,492429.56764515856,0,2008,1454,3
-1392.135997609039,-203.78125745377258,311.2225722216934,305902.9852188464,143711.34914013144,491780.959032382,0,2009,1454,3
-1425.4590518090815,-236.28338041296337,309.3571872300825,300526.59800838056,145574.15714175612,490462.9178000773,0,2009,1454,3
-1456.3946386264015,-270.8445048134021,306.6246401799205,294819.22132830496,147332.2901267499,488456.77511529863,0,2009,1452,3
-1484.7422401583724,-307.32841248652704,303.0556891769792,288820.16670722765,148972.3757486017,485743.9277851343,0,2009,1453,3
-1510.3112905441355,-345.52951326223007,298.6895089340827,282572.83089888166,150481.91766065056,482306.5403460459,0,2008,1453,3
-1532.9285786904716,-385.17602985658226,293.57149242659915,276123.5842300282,151849.71630294778,478128.51158256043,0,2010,1454,3
-1552.4464317227785,-425.9361153246935,287.75070053904847,269520.75703383505,153066.2891579756,473196.6075283412,0,2006,1455,3
-1568.7486362882357,-467.4229578103545,281.27843625233425,262814.25672125816,154124.15558169276,467501.5916200735,0,2010,1454,3
-1581.75562809508,-509.20004089210187,274.2077188174323,256055.59082040377,155018.03272358613,461039.2952109014,0,2012,1452,3
-1591.4292953220563,-550.7858385737522,266.5931248749341,249298.24847602737,155744.90284378518,453811.61531335185,0,2009,1459,3
-1597.776689507473,-591.6571008007988,258.49099856821874,242598.427421101,156303.85192960704,445827.2688654336,0,2010,1454,3
-1600.8537092871254,-631.2533892828117,249.95959054129702,236015.67059900245,156695.74401253933,437102.1652766296,0,1997,1462,3
-1600.7680187700985,-668.9827342423522,241.05876566568853,229613.215276909,156922.86823536857,427659.68045781564,0,2000,1463,3
-1597.678818699813,-704.2296962316747,231.84893236589198,223457.83292214037,156988.57889777634,417530.9261171622,0,1991,1469,3
-1591.7928850933097,-736.3695199963521,222.38893986228996,217618.82185669502,156896.88892407884,406754.743867858,0,1974,1479,3
-1583.3586355917782,-764.7843204452198,212.73457726536571,212166.5393271613,156652.15806474336,395377.66326317133,0,1973,1484,3
-1572.6585145513561,-788.8775906357615,202.94025922878652,207170.50489173818,156259.19757449513,383453.78285865416,0,1972,1488,3
-1559.997971056334,-808.0893313269341,193.06418055331346,202696.51367704925,155723.95299832564,371044.0275939719,0,1974,1481,3
-1545.692938481396,-821.9088223769995,183.1747587780063,198803.4894756231,155054.5411956709,358215.29530291667,0,1968,1490,3
-1530.0581880208078,-829.8826243540544,173.35658446902337,195540.69625411404,154262.39283272982,345039.9844989475,0,1964,1488,3
-1513.3961550749866,-831.6230061029308,163.7152347068617,192944.68428084833,153363.39257436394,331595.4728633943,0,1968,1487,3
-1495.9866809882685,-826.8193309953659,154.3805161285201,191036.40319421608,152378.714059112,317963.88172058744,0,1972,1483,3
-1478.076455140539,-815.2557234418312,145.50933281465183,189819.43620149288,151335.07956909406,304232.41167580977,0,1971,1485,3
-1459.8696649057285,-796.8419346505655,137.29050708953852,189279.2304761305,150264.58484376836,290493.59943688015,0,1969,1485,3
-1441.5257322485886,-771.649726048571,129.95055521748367,189383.09326061624,149204.16974799463,276845.51110422163,0,1971,1485,3
-1423.1620050339443,-739.9374893009,123.75030962004254,190081.10201883139,148193.83934857327,263391.6030955967,0,1969,1485,3
-1404.8550096056163,-702.1601129213773,118.9593403080991,191307.90013353314,147272.76721671032,250239.17686413592,0,1972,1483,3
-1386.6408953469165,-658.9728345813343,115.8136647747629,192984.96555511962,146474.47467038053,237496.9294640749,29,1975,1480,3
-1368.5176251607415,-611.2358623821085,114.47310606784895,195023.447258736,145822.80864214004,225272.2739890831,133,1971,1486,3
-1350.4472572434893,-560.0210165334726,114.98253701674116,197327.86600893157,145329.1965950807,213667.98542588376,482,1972,1483,3
-1332.3591885246274,-506.6148782934925,117.23955090798607,199799.69907398708,144991.61370282856,202779.20209862778,1066,1978,1481,3
-1314.161395927411,-452.49002242318784,120.9751792147096,202340.48680124476,144795.8986283153,192691.46008668165,1958,2002,1460,3
-1295.7593546853018,-399.2094408825901,125.75087996470792,204855.5253036414,144719.26330210292,183478.29099598966,2419,1996,1463,3
-1277.0727179613239,-348.2749774964283,130.97992727394418,207258.52256492793,144735.21847167896,175197.95084078057,2539,2009,1454,3
-1258.0482232946474,-300.944208302213,136.0034420748641,209478.6755284093,144820.20824830187,167889.22665561616,2533,2010,1454,3
-1238.6749463486808,-258.0393887530332,140.24082086239085,211471.4954887592,144961.81291990713,161565.97867570943,2461,2016,1452,3
-1219.009047210594,-219.8367897887075,143.3481521865516,213228.55699094114,145163.94991601713,156213.2610845424,2452,2010,1453,3
-1199.211503038761,-186.13037180055986,145.27950346335882,214778.18421850144,145442.77409570265,151789.24918827545,2365,2009,1452,3
-1179.5636824959863,-156.44272814321974,146.22711485382095,216174.27535959156,145813.5030446804,148233.40217246173,2196,2010,1455,3
-1160.4169089166342,-130.24711650553283,146.4980420374531,217478.60489937715,146276.8214798424,145476.9495527627,2116,2009,1454,3
-1142.1073641400662,-107.09026426490306,146.4011852024555,218746.30827488936,146812.9010366784,143450.91512642297,2069,2018,1452,3
-1124.8952650658978,-86.61145562774918,146.18252348593668,220019.86962355996,147384.3087254036,142089.69484463995,1922,2023,1453,3
-1108.9370964955096,-68.51121044736527,146.0013199976631,221329.50869026067,147944.8537442549,141331.22468208292,1928,2017,1451,3
-1094.281436165797,-52.51948995065636,145.93450249936456,222695.76629580645,148449.3786094615,141115.6000367915,1906,2020,1453,0
-1080.8876963091807,-38.38498367585197,146.0056508875952,224131.72256529803,148861.14412458998,141383.6292604399,1823,2022,1455,0
-1068.6617985548328,-25.879070504615566,146.22816990164873,225643.93917544003,149156.90607030888,142076.1646041847,1855,2028,1451,0
-1057.4939672117835,-14.803315342801705,146.63800459823736,227232.22697911735,149329.1736518706,143134.48830695247,1890,2028,1452,0
-1047.2880810055367,-4.9969751860648755,147.29508822549354,228889.3157794663,149384.13329996742,144501.73646641677,1920,2044,1452,0
-1037.9807427922303,3.656795854779083,148.25988703592537,230601.79684921622,149336.0303641933,146124.8783197479,1902,2047,1453,0
-1029.5465649153996,11.22908790031263,149.56907545170048,232352.43384524476,149201.37056488736,147956.17397260512,1916,2052,1452,0
-1021.9867246073054,17.751620694954315,151.2237453929131,234123.23237732414,148995.34056317885,149953.36318331238,1978,2076,1452,0
-1015.3075299519097,23.232066665306494,153.18589937576562,235898.80209879964,148730.19496967184,152078.80251060062,1943,2085,1452,0
-1009.5026268082675,27.671649679925395,155.37811354225573,237668.89445022304,148414.95754400076,154298.22344806793,1946,2088,1450,0
-1004.5460764353181,31.078536489162886,157.69052888501702,239429.19389211803,148055.9996788813,156579.78204210065,1931,2072,1450,0
-1000.3930527865567,33.47709947301397,159.9994035280853,241180.57629816548,147657.79837801188,158893.82725021674,1866,2090,1453,0
-996.9838274440125,34.91336925281528,162.19064762868905,242927.39687233637,147223.53886914637,161213.31500304444,1999,2122,1453,0
-994.2486282501767,35.45621619130273,164.17643672698475,244675.51043669146,146755.52284882858,163514.3598264536,1971,2114,1458,0
-992.1118042001083,35.19518791159193,165.90061546513445,246430.51555611435,146255.46482199113,165776.5933460163,1928,2112,1455,0
-990.4951638315182,34.23576478296262,167.33675208759811,248196.20455244835,145724.86603216827,167983.39144718947,1887,2110,1456,0
-989.320636833422,32.69351408748552,168.4833005703574,249973.3784209955,145165.45877424188,170121.92568629875,1798,2117,1455,0
-988.5127974446855,30.687950917591913,169.3570010989634,251759.33803726308,144579.5714780311,172182.93611814335,1750,2095,1451,0
-988.0016275540517,28.335586374631703,169.98434589739398,253548.00138774345,143970.3396517879,174160.33911974478,1730,2097,1455,0
-987.7247722809767,25.743637599881126,170.39359778914735,255330.34446062733,143341.74623327624,176050.79829129766,1609,2106,1454,0
-987.6290885953345,23.005941678941294,170.60988688608074,257095.09817390546,142698.47005592444,177853.2700916638,1467,2104,1454,0
-987.6718348509917,20.200327972780546,170.65252308381247,258829.78660253718,142045.57298655369,179568.4921592477,1426,2124,1453,0
-987.8212447413457,17.38733534543679,170.5332073052097,260521.79440463125,141388.16135745635,181198.42889430252,1361,2120,1455,0
-988.056253797649,14.611221646399407,170.25489657450885,262159.2474154575,140731.04431373425,182745.73233205872,1313,2133,1452,0
-988.3653317141651,11.902998011978148,169.81124021300744,263731.88705596025,140078.30529808436,184213.25238937917,1223,2132,1454,0
-988.7445590110087,9.28407250557951,169.18696143003046,265231.76366289327,139432.92740764655,185603.629464563,1150,2153,1455,0
-989.1951515211628,6.770094442658748,168.36020306967558,266653.43742490397,138796.6732952529,186919.01966876222,1041,2148,1455,0
-989.720554292787,4.375503123591187,167.30724215584377,267993.79052399215,138170.18692618585,188160.96643720716,981,2138,1455,0
-990.3238814258116,2.117585658203137,166.00795753911376,269251.6365072498,137553.19425389136,189330.36673154458,933,2150,1455,0
-991.0064376851211,0.01772433733308601,164.45014074560262,270427.1543197648,136944.72787329988,190427.5244645437,848,2154,1456,0
-991.7671205708909,-1.9006254560399136,162.63202466906054,271521.1817591738,136343.32883055691,191452.32917029833,784,2171,1465,0
-992.6022474596318,-3.6154774124783895,160.56293873873364,272534.5541391362,135747.20543933145,192404.46240232183,743,2166,1466,0
-993.5055403229593,-5.109908571242565,158.26266652878493,273467.6866816983,135154.38479543797,193283.54023784646,698,2193,1483,0
-994.4683223640641,-6.3754021196060515,155.76045438388243,274320.4199428284,134562.91284802117,194089.24744536285,685,2194,1631,0
-995.4800082198631,-7.414245839297831,153.09429613650204,275092.04669635434,133971.0818480074,194821.45331595468,622,2205,1631,0
-996.5287690484399,-8.240345173125373,150.31020659300708,275781.51307838963,133377.58579185643,195480.26822137964,552,2207,1627,0
-997.6024282474408,-8.878811793988644,147.46016376462308,276387.7920203734,132781.54122212692,196066.0943364935,542,2219,1631,0
-998.6894429800027,-9.364753138068561,144.59850939667032,276910.26303243666,132182.41136124093,196579.67799387733,490,2240,1630,0
-999.7794652907654,-9.740989905307023,141.77770738997108,277348.9778425505,131579.88059148402,197022.13428732287,433,2261,1637,0
-1000.8632576388231,-10.054506828330508,139.04399781148211,277704.8628411929,130973.70425664258,197394.96155350958,398,2225,1663,0
-1001.9320320100876,-10.352712295804082,136.4343146223306,277979.8405203294,130363.616602993,197700.0401097432,391,2249,1665,0
-1002.9765091809217,-10.680635094276099,133.97562225110244,278176.7970821064,129749.34891850065,197939.60417688222,391,2246,1671,0
-1003.9864498095899,-11.079128738247094,131.68549846997448,278299.4206425281,129130.7051923101,198116.2271246934,316,2271,1674,0
-1004.9511815012559,-11.584221196903288,129.57256544775692,278352.007813099,128507.64076362306,198232.84485141523,280,2275,1677,0
-1005.8608562356742,-12.227668273324769,127.63716679002972,278339.32970182906,127880.30206424379,198292.78417231364,237,2309,1678,0
-1006.7078914262352,-13.037819292535023,125.87302495304644,278266.580083131,127248.99794092365,198299.7637233551,225,2341,1678,1
-1007.4877531603561,-14.039636888750744,124.2694637714414,278139.37919046025,126614.14867551804,198257.86198171898,177,2323,1685,1
-1008.1981995942675,-15.253543520161115,122.81364832366617,277963.7914818004,125976.26042182927,198171.42865068797,151,2317,1695,1
-1008.8374005632378,-16.69390611815575,121.49295128114207,277746.3175228744,125335.91771588844,198044.93151643002,114,2341,1703,1
-1009.4025271873384,-18.36833274850005,120.29743484952854,277493.84864941955,124693.81646963843,197882.8072080154,124,2358,1695,1
-1009.889949943331,-20.278287002949522,119.22237041674902,277213.55844173743,124050.85395979443,197689.362712617,115,2338,1707,1
-1010.2968717514303,-22.420576642247013,118.27044969463475,276912.7011791679,123408.21097873633,197468.69578127004,77,2374,1704,1
-1010.623165040291,-24.788537927913737,117.45248326581186,276598.38483839843,122767.35448459222,197224.61715259653,54,2392,1706,1
-1010.8721012291153,-27.37222005587589,116.78559521815478,276277.38949164475,122129.90825973914,196960.57092713096,71,2413,1713,1
-1011.0495575672242,-30.15837434248331,116.28959450105904,275956.01134124666,121497.40159902564,196679.54173526418,40,2422,1725,1
-1011.1625307330207,-33.13108031323566,115.98352783158252,275639.93237416755,120871.05805560765,196383.99198874194,8,2420,1734,1
-1011.2181074075348,-36.27248935708894,115.88342771766428,275334.1138465508,120251.75534999701,196075.88222637732,11,2427,1741,1
-1011.222836884595,-39.56263167361756,116.0008769131254,275042.6812268441,119640.0983242668,195756.7581067566,31,2421,1734,1
-1011.1822499065989,-42.97869197832081,116.34247973574134,274768.8468447442,119036.51103391632,195427.88159643358,3,2412,1764,1
-1011.101405941813,-46.49604756354321,116.91049218427042,274514.9241785234,118441.29814401321,195090.41489770752,8,2460,1770,1
-1010.9866015337375,-50.09154204921101,117.70375257984234,274282.3796754756,117854.64602641427,194745.591000215,0,2432,1796,1
-1010.8467390690082,-53.746161621821116,118.7179616446488,274071.86726500443,117276.60030799064,194394.73660820478,0,2428,1794,1
-1010.6933370274654,-57.44525758894803,119.94557998441934,273883.2792504983,116707.07486787082,194039.07503233198,0,2445,1795,1
-1010.539822400776,-61.17717609063528,121.37597311353574,273715.83899098425,116145.8887253082,193679.38281512907,0,2446,1803,1
-1010.4011604913691,-64.93138263013115,122.99599304553162,273568.1929610887,115592.81047046094,193315.70624478612,0,2463,1806,1
-1010.2938192552991,-68.69653929206923,124.790904952899,273438.4631877052,115047.59555935774,192947.25800061127,0,2484,1800,1
-1010.2356098163082,-72.45919309223244,126.74525999175683,273324.27369489823,114510.0099588056,192572.43279114921,0,2475,1821,1
-1010.2454531902952,-76.20372062229661,128.84365041716302,273222.7876764363,113979.84671074344,192188.88082432686,0,2480,1820,1
-1010.343042655301,-79.91322396728887,131.07169828925535,273130.76643677324,113456.9340453341,191793.6232870372,0,2446,1835,1
-1010.5482772638808,-83.57006918283044,133.41701321699225,273044.6408620779,112941.13954425466,191383.19879857855,0,2455,1855,1
-1010.8810379977165,-87.15578975896292,135.86958662134847,272960.6087718435,112432.35352242975,190953.884313331,0,2454,1859,1
-1011.3621055690538,-90.65223309160228,138.42167867926887,272874.76172988623,111930.4200507414,190502.01629177574,0,2469,1878,1
-1012.0147469538117,-94.04439557794781,141.06730720336702,272783.18683906883,111435.05689712278,190024.27657921347,0,2458,1897,1
-1012.8654934231861,-97.32256696638215,143.80125984567,272682.0246665747,110945.81804447636,189517.74294893772,0,2433,1893,1
-1013.9438506464097,-100.48263563005499,146.61807279619617,272567.56658455305,110462.09133956306,188979.70241804043,0,2468,1886,1
-1015.2822873384022,-103.52527973002705,149.51155285966888,272436.4319288822,109983.12039099631,188407.42571341846,0,2406,1941,1
-1016.9176340609731,-106.45452718107252,152.47467009591597,272285.7587476108,109508.03773887055,187798.02320322517,0,2393,1983,1
-1018.8924927852568,-109.2762333117868,155.49960816390484,272113.36386117333,109035.88273327403,187148.34682819335,0,2421,1981,1
-1021.2534629783445,-111.99675665430118,158.57796048243858,271917.89391539065,108565.57969957011,186454.8864514951,0,2401,2023,1
-1024.0464698012543,-114.62104189565947,161.70019029350647,271698.9922437467,108095.87003873778,185713.6683275358,0,2384,2025,1
-1027.3131342148947,-117.14976076224039,164.8542493877294,271457.47877202043,107625.23997456166,184920.23021689814,0,2335,2061,1
-1031.0903041395145,-119.57678188562744,168.02564692499357,271195.5167965209,107151.88921999188,184069.73211589843,0,2353,2090,1
-1035.412162145271,-121.88869674935864,171.19996158990875,270916.69638626423,106673.76969992467,183157.1845881647,0,2344,2104,1
-1040.312987159735,-124.06606839609245,174.36568471052072,270625.9500380602,106188.70967896812,182177.68348407574,0,2310,2148,1
-1045.828433980902,-126.08380848133207,177.5158843505808,270329.25975612015,105694.56631449713,181126.43842902576,0,2321,2185,1
-1051.995162467599,-127.90977645467741,180.64879976134546,270033.2220168211,105189.32556806876,179998.52257764433,0,2278,2214,1
-1058.8497325392052,-129.50294513075505,183.76740777619602,269744.6720420796,104671.12462133763,178788.5864496019,0,2258,2242,1
-1066.4271588720305,-130.81223749610083,186.87800173381353,269470.4505901056,104138.17917928235,177490.77703567455,0,2210,2250,1
-1074.7598405347303,-131.77762337565065,189.9880903542698,269217.19235541916,103588.61866469296,176098.87083890208,0,2165,2291,1
-1083.8772330240229,-132.33406243943435,193.1040706160461,268991.0904776395,103020.34498251334,174606.51481719836,2,2140,2354,1
-1093.8053722287732,-132.41639158983642,196.22915522062786,268797.66595167544,102431.0497193209,173007.39986138418,0,2090,2383,1
-1104.5656148571354,-131.96365736328477,199.36199528004275,268641.5542390345,101818.3953796519,171295.26083761477,2,2051,2251,1
-1116.1729647315233,-130.9220098855585,202.4964126955536,268526.3845632832,101180.27260345967,169463.84046769125,5,2005,2299,1
-1128.634582988308,-129.24538127132556,205.62220238294975,268454.79540933756,100515.05979223248,167506.9824153144,0,2002,2323,1
-1141.9489342990125,-126.89505769515938,208.72645669917495,268428.5036640314,99821.83517767886,165418.85137433957,0,1939,2342,1
-1156.1059559046298,-123.84005605583239,211.79479829476236,268448.31811985344,99100.43763764926,163194.18348527187,0,1948,2362,1
-1171.087660729001,-120.05842058503396,214.81189481785592,268514.06346403476,98351.31154819152,160828.4560632797,0,1833,2409,1
-1186.8676237257112,-115.53821425898143,217.76077654852557,268624.48276982433,97575.2683382796,158317.97331583363,3,1833,2452,1
-1203.4091813303437,-110.27748669097497,220.6211745187375,268777.21907718986,96773.3104393882,155659.91566456904,0,1743,2484,1
-1220.663233438371,-104.28346203810796,223.3677397233264,268968.8906452597,95946.51091514467,152852.3551043702,0,1655,2529,1
-1238.565776483791,-97.57197825532724,225.96864328741697,269195.1743727582,95095.94641386178,149894.34051240963,2,1629,2564,1
-1257.035459534901,-90.16822042533133,228.38402767462546,269450.8402014327,94222.69022288536,146786.11352742792,1,1595,2573,1
-1275.9716191620137,-82.10873130592505,230.5639544602736,269729.7756056035,93327.819999081,143529.35232460205,0,1533,2585,1
-1295.252315379641,-73.44383669242656,232.44678115620692,270025.05634778633,92412.45708058549,140127.43896433644,0,1496,2625,1
-1314.7320825256193,-64.23952700382682,233.9591962095805,270329.12500515976,91477.88424159231,136585.75156014157,0,1384,2612,1
-1334.2397561219273,-54.57826200357783,235.01807263677625,270634.1047426008,90525.72053885624,132911.8830631216,11,1327,2656,1
-1353.576460657944,-44.559045893128,235.53329900464692,270932.1182793378,89558.11594031095,129115.8358643782,0,1256,2669,1
-1372.5146519672378,-34.29695591817334,235.41192655871492,271215.4623712904,88577.95882172612,125210.20250963743,0,1217,2674,1
-1390.7993546645719,-23.9215008993847,234.56478928338248,271476.6324493338,87589.10123038998,121210.20384010092,0,1071,2688,1
-1408.1511880791272,-13.573919087906157,232.91458526614872,271708.21169855737,86596.59303976678,117133.68799330453,0,1008,2691,1
-1424.2711546508199,-3.40396355192241,230.40408547388904,271902.50972763414,85606.8491622211,113001.18004612462,3,914,2685,1
-1438.8474910925806,6.4337477153306954,227.00397689943526,272050.8566153962,84627.63747107865,108835.87142606707,0,863,2669,1
-1451.5642306207008,15.783741552978293,222.71782128152432,272142.7452560867,83667.83289795929,104663.67423185342,2,812,2650,1
-1462.1104978995143,24.493476125189343,217.5813773450427,272165.07256930345,82736.9142464207,100513.51233724858,13,823,2614,1
-1470.1872163766602,32.41452731681261,211.6565670062671,272101.5847483743,81844.29604165838,96417.73591481405,0,871,2565,1
-1475.5100220781524,39.39848994043474,205.0212432321398,271932.7919933529,80998.7577645706,92412.43737530886,0,980,2518,1
-1477.8121023682415,45.28891117472189,197.75679565539318,271636.58417965035,80208.20375782799,88537.54136682453,3,1068,2445,1
-1476.8496040450952,49.91610306376067,189.9384783789785,271189.33909989684,79479.88874138778,84836.7634931773,8,1213,2350,1
-1472.4113139918961,53.103998339726935,181.63154944491157,270567.5290342154,78821.19386334412,81357.34695211638,0,1283,2280,1
-1464.3338015069828,54.69058456830898,172.89275109070292,269750.1517401468,78240.825620234,78149.29855087948,4,1338,2155,1
-1452.516831466205,54.55128239784821,163.7763268011218,268721.562901204,77749.88025389572,75264.37482094974,0,1439,2056,1
-1436.9312098924088,52.61791027603821,154.34259441156865,267474.17631092906,77362.03410829302,72754.98311104524,4,1511,1956,1
-1417.6171949410423,48.8964197100072,144.66488586269793,266011.0908001201,77092.59982862367,70672.71070899186,4,1539,1911,1
-1394.6763713999774,43.48310586491747,134.83137261102107,264348.2345661053,76956.93501704893,69066.75322418779,13,1641,1802,1
-1368.2570345000881,36.57295825822689,124.94099771162418,262515.42770174734,76968.67607665858,67982.54832213334,15,1710,1752,1
-1338.532808482428,28.456461886218193,115.09460727525695,260556.42946815144,77137.90284880124,67460.41678219201,3,1791,1683,1
-1305.683346281963,19.505369629068273,105.38638842367826,258528.280168744,77469.65628852334,67534.51547994115,0,1814,1651,1
-1269.8861786250066,10.146300858898858,95.90215287661431,256499.62958261362,77963.21174448762,68232.68459496269,0,1835,1626,1
-1231.3186307161575,0.8227588187287818,86.72356261220699,254547.50485130996,78611.90557553104,69577.10463277633,2,1830,1619,1
-1190.1662072389752,-8.041989950834594,77.93182604932379,252753.07488763655,79403.26953885736,71585.20833116536,0,1891,1571,1
-1146.6353317453602,-16.073875324017756,69.60604079371869,251196.629018082,80319.68267048243,74270.52051517327,3,1886,1554,1
-1100.9668650655294,-22.975791117351395,61.81544281219006,249951.36432118082,81339.7918357083,77643.33679913744,0,1927,1524,1
-1053.4462203740593,-28.551583494316613,54.60956213702721,249077.7009507515,82440.38055704591,81710.91810053898,6,1959,1500,1
-1004.4068762018583,-32.71439315982698,48.011572728308956,248620.0766995093,83598.59678156048,86476.91828725976,0,2006,1456,2
-954.2272794323965,-35.478026953875265,42.01807973098064,248605.84693256725,84794.85003624001,91940.20183700493,0,2011,1451,2
-903.3254582448553,-36.93868788437106,36.606075491711984,249045.53711557394,86015.62370558234,98093.42923384534,0,2008,1456,2
-852.1521079236334,-37.249137642751,31.746234300010602,249934.4973408661,87255.04689880412,104921.8633917584,0,2010,1454,2
-801.1792359961562,-36.585046177526216,27.42078222344558,251255.83318904563,88515.05505275844,112402.7427135777,0,2012,1451,2
-750.888796312284,-35.11394136676394,23.63899835314323,252983.57880358718,89804.28763822783,120505.24060950625,0,2010,1454,2
-701.7642511152918,-32.975332573726405,20.440924889262696,255085.43628870792,91135.43591534781,129191.2811038963,0,2010,1455,2
-654.2792423621911,-30.266913899681498,17.888467051209663,257525.354928545,92521.18276471981,138417.39722672343,0,2010,1454,2
-608.882640743003,-27.034181414511774,16.05229585239561,260265.57966666928,93970.39450140575,148136.60251728387,0,2011,1451,2
-565.9824830865849,-23.27029889104399,15.001074924912123,263267.6649505292,95486.28668464696,158299.70889196463,0,2011,1450,2
-525.9301897254998,-18.930928058321886,14.792903698641634,266492.827876793,97066.55733420418,168856.80880446566,0,2009,1454,2
-489.01294160208414,-13.958614747300883,15.468695395961573,269901.8851889705,98704.56587869485,179758.66335080224,2,2009,1454,2
-455.4594842241587,-8.30855812371007,17.048388448472508,273454.79062097735,100391.15964697901,190957.43940954446,0,2008,1456,2
-425.453687021903,-1.9715823040793825,19.529072635960006,277110.08137509803,102117.03292689646,202407.1818280807,0,2007,1454,2
-399.147320056351,5.011987966200349,22.88459748126502,280824.5759984224,103874.7895853294,214063.8617139088,0,2006,1455,2
-376.6666523736556,12.553169794041457,27.068109403674967,284553.7634308847,105659.98430128148,225884.86658089244,0,2005,1456,2
-358.1126112040804,20.525848336794144,32.01775054599393,288253.12928219466,107471.37065356754,237828.6001337528,0,2010,1454,2
-343.5593345619167,28.779807411111086,37.66269057581598,291879.75822275196,109310.64491115886,249854.2648394728,0,2010,1452,2
-333.05556716866676,37.15258587927704,43.927576281760906,295393.61814781453,111181.71651787244,261921.8137948834,0,2009,1452,2
-326.62783945393426,45.482707547126026,50.73641771353477,298758.67292593734,113089.71210239182,273992.4177687947,0,2010,1453,2
-324.2822460428791,53.621787740217805,58.016274662074096,301943.6402657934,115040.06837387991,286028.8915078029,0,2010,1451,2
-326.0044162355183,61.44190848153323,65.70042467729752,304922.0846297206,117037.86842344195,297995.4983316252,0,2010,1451,2
-331.7587997157072,68.83944457942539,73.73116178165367,307672.0995378398,119087.32686728258,309857.5074433344,0,2010,1451,2
-341.4878195271583,75.73579601208571,82.0617579257797,310175.85933361604,121191.37599562036,321581.1695527722,0,2010,1451,2
-355.11052517531544,82.07381708722025,90.657170940473,312419.1292641183,123351.36542952733,333134.4054679265,0,2010,1452,2
-372.52066462053324,87.8108967121205,99.49357585512769,314390.81270162604,125566.85332350673,344487.4826536128,0,2010,1454,2
-393.58638823921893,92.9104565028298,108.55699488644768,316082.57515168405,127835.59752585545,355613.1111799905,0,2010,1453,2
-418.1535754888557,97.3332422831791,117.84136603198914,317488.5306100379,130153.84684969723,366486.3878447596,0,2010,1453,2
-446.05050953277765,101.03125586647114,127.34550458671742,318604.93116129574,132516.67006927612,377084.5474646337,0,2010,1452,2
-477.0910808239121,103.94697349223287,137.06739288271638,319429.82639984775,134918.0467193509,387386.405581297,0,2009,1452,2
-511.0765828605761,106.01709820206104,146.99594637858243,319962.75301923166,137350.79594115305,397371.99769717356,0,2009,1451,2
-547.795992525111,107.17732380519102,157.1039657174755,320204.53401990497,139806.49135765037,407022.35820939427,0,2009,1452,2
-587.0258886906371,107.36551294207892,167.34597280050693,320157.1553524158,142275.5786070471,416319.2849558738,0,2009,1452,2
-628.5323569351854,106.52366413922088,177.66049514964865,319823.6066559647,144747.8657401177,425245.4045838791,0,2010,1452,2
-672.0732010432603,104.5996046836372,187.97351476074297,319207.65355431143,147213.0817838353,433784.263157961,0,2009,1452,2
-717.3988912887321,101.5482207487849,198.20150114601856,318313.5483765844,149661.2005898334,441920.1561899635,0,2010,1452,2
-764.2538542118405,97.33179403182888,208.25439216773805,317145.67056189245,152082.63427876934,449638.0319673788,0,2009,1452,2
-812.3773004084946,91.91906629542277,218.0375495695029,315708.21795495035,154468.33164832398,456923.3920867715,0,2009,1452,2
-861.5033504641552,85.28187529109998,227.4518247196767,314005.0980665601,156809.79977334978,463762.0745644576,0,2009,1453,2
-911.362951383021,77.38865958874874,236.39291953349814,312040.0479306,159099.2164034622,470140.2429463234,0,2010,1454,2
-961.6863015198956,68.19743619229945,244.7517774647366,309817.0135295129,161329.57591346168,476044.4420364464,0,2009,1451,2
-1012.2045026474244,57.65144465114464,252.4184767564626,307340.8331429942,163494.72939022965,481461.4837421814,0,2008,1454,2
-1062.6523308441724,45.67777503627885,259.2905190735385,304618.13373826205,165589.3402460471,486378.34558868833,0,2008,1452,2
-1112.7702155590503,32.1884699781661,265.2814931846488,301658.19915346435,167608.70633023,490782.0048695123,0,2006,1453,2
-1162.3034351810834,17.083634319707883,270.32653351506156,298473.6298402004,169548.36961789816,494659.0894553476,0,2008,1453,2
-1211.0009409795136,0.2554731262108926,274.3853010259096,295080.82067459397,171403.5775660554,497995.5640798544,0,2008,1453,2
-1258.6140649118195,-18.40713599161504,277.4429819405955,291500.351051562,173168.7311304935,500776.50182947284,0,2006,1454,2
-1304.8947100412056,-39.01268362413392,279.50810798748097,287757.1947094302,174836.94112755207,502985.8864897165,0,2005,1456,2
-1349.595085128969,-61.65979308858402,280.60734882660097,283880.62210544606,176399.73963771475,504606.53096414625,0,2005,1455,2
-1392.4684341398502,-86.43090857612549,280.7798859302319,279904.0024610763,177846.93300389513,505620.077466375,0,2010,1453,2
-1433.2701309021506,-113.38842602018492,280.0740804459189,275864.6266631074,179166.68729344875,506007.0482790072,0,2010,1453,3
-1471.7605973352213,-142.57197763975066,278.5469892762976,271803.3705386754,180345.9317882263,505747.04706074926,0,2009,1452,3
-1507.7083168083752,-173.99487575074323,276.2657016276017,267764.2950411703,181370.8690906633,504819.06446211465,0,2010,1455,3
-1540.8916816621918,-207.63998887221047,273.3090512123071,263794.1605775582,182227.40038024003,503201.7771472609,0,2009,1454,3
-1571.101183509457,-243.45605177122548,269.76873904799953,259941.51649400624,182901.543712873,500873.8714113133,0,2011,1451,3
-1598.1405209370382,-281.3530613855788,265.7495820985316,256255.57744283834,183379.84035949956,497814.45679836225,0,2008,1454,3
-1621.8260267719952,-321.194775378284,261.3686940526831,252785.05927717753,183649.75162652234,494003.61428285245,0,2008,1456,3
-1641.9878975779664,-362.7888956758449,256.7539373357924,249576.70679093443,183700.1712921884,489423.1043146676,0,1996,1464,3
-1658.4748175276752,-405.8778187369398,252.04242467756384,246673.8364263486,183521.94739681671,484057.19559712795,0,1973,1481,3
-1671.1621731765179,-450.1333281902828,247.37837363951687,244115.10620257308,183108.23744353742,477893.53099640843,0,1974,1479,3
-1679.9631409755787,-495.1560486690721,242.9092273593502,241933.09419871133,182454.7478627172,470924.0066694801,0,1970,1485,3
-1684.8377732465926,-540.4770135652044,238.78076072997388,240152.90868994463,181559.9102261631,463145.78226882155,0,1968,1483,3
-1685.7971951811965,-585.562195161605,235.1306991716682,238791.26799693433,180424.92883097677,454562.46417433117,0,1969,1485,3
-1682.9049558538281,-629.823162819854,232.0796681411918,237855.86650251615,179053.6941470182,445185.3040755792,0,1964,1495,3
-1676.2765347742738,-672.6287480028099,229.72244362028755,237345.00084513696,177452.66987530526,435034.36463899247,0,1958,1499,3
-1666.0775393033014,-713.3122851599242,228.12291924020198,237247.7006473251,175630.7766925911,424139.57521086826,0,1955,1499,3
-1652.5241829822066,-751.1777490918996,227.3121410734212,237544.2877550322,173599.23290165764,412541.4944242122,0,1938,1514,3
-1635.8875889633969,-785.5069390432656,227.28847288780798,238207.03503378274,171371.45784864016,400291.9093532067,0,1936,1517,3
-1616.49566002311,-815.5692902906744,228.0209695734125,239200.8402951758,168963.04481820855,387453.9813017527,0,1931,1518,3
-1594.7262317490693,-840.6376254356258,229.45585163208332,240484.068093635,166391.6379587356,374101.35594510264,0,1936,1516,3
-1570.9928183005986,-860.0063856069877,231.52231142299237,242009.38174151178,163676.7572617538,360316.9267866522,0,1933,1517,3
-1545.7244778220436,-873.014570425089,234.1335655226581,243724.39444524658,160839.7805338343,346191.87467827863,0,1942,1507,3
-1519.3427366403716,-879.0842185311341,237.18358326248122,245572.42493041544,157904.28573965136,331824.63561860885,0,1945,1505,3
-1492.2456706129733,-877.7662793559978,240.5457622906275,247493.50833967433,154896.8224633378,317320.3621832504,0,1948,1502,3
-1464.8029909308368,-868.7758818853139,244.0802275407667,249425.86346619815,151847.62381628514,302790.995583775,0,1946,1509,3
-1437.3567883949897,-852.0160352261806,247.6451746843674,251308.07170969137,148790.50988128362,288354.55318915093,0,1960,1495,3
-1410.2260629857997,-827.593648247396,251.10264789726438,253081.44546053652,145761.86353248227,274133.3109974891,0,1959,1493,3
-1383.7136128391853,-795.8239514623563,254.32085674021113,254692.32144099966,142798.8835260229,260250.6106900355,0,1964,1493,3
-1358.1086269705595,-757.2188397829902,257.17786752546937,256094.58603849157,139937.39308930087,246825.57104132988,0,1964,1487,3
-1333.6814358905879,-712.4621891315455,259.56442114833675,257251.86681865042,137210.06310866226,233967.7593829293,0,1963,1493,3
-1310.6725408745683,-662.376096283758,261.3856756142904,258138.71763997414,134645.42148291226,221773.8440763129,0,1970,1489,3
-1289.2786765064238,-607.8801347670238,262.5639313603544,258740.88796881997,132267.0644733696,210325.38936519032,0,1964,1488,3
-1269.6408499687345,-549.9573378012767,263.0403245116525,259054.67619374263,130093.01925690143,199687.6187311855,0,1962,1490,3
-1251.8374087049726,-489.6378398696875,262.7714347706257,259085.00529485734,128135.75662378526,189909.58180086085,0,1958,1494,3
-1235.8797106514423,-427.99411782114663,261.7204326766454,258842.33292892532,126402.92519473986,181024.95993056273,0,1973,1481,3
-1221.7103539460045,-366.1418413994839,259.84809127553416,258339.63570823096,124898.49751491567,173053.085443274,20,1995,1465,3
-1209.206092464146,-305.2434928462277,257.1086109945721,257590.53544824332,123624.12918812135,166000.21803910955,149,2000,1464,3
-1198.1840836524989,-246.50530569573897,253.45093594160383,256608.4713210816,122580.63422792898,159860.76953885378,408,2012,1454,3
-1188.4115747140597,-191.1428956655644,248.82641470255177,255406.7768743419,121769.12893428486,154618.25339187996,1089,2012,1451,3
-1179.6226530907586,-140.29835374896834,243.198156943843,253999.98420791165,121191.01889421344,150245.65898828013,1845,2010,1453,3
-1171.5399137739055,-94.92851059357277,236.53806526186898,252406.2656163863,120846.33921199538,146704.8367675955,2268,2012,1451,3
-1163.8911110926024,-55.67408632432493,228.8114567875266,250650.59839713614,120730.98948561338,143945.24812789177,2373,2011,1450,3
-1156.4149621680722,-22.728464632225574,219.97592310239986,248769.28022269745,120833.83653190153,141903.2844693783,2414,2012,1451,3
-1148.8657317053421,4.2045507935561455,210.01696698240423,246815.8562610422,121134.52803502574,140503.4557300674,2525,2012,1454,3
-1141.0331334653904,25.819869413554283,199.00526671906698,244864.53766684735,121603.21008965891,139661.93091119546,2567,2009,1451,3
-1132.7795400928262,43.035732600860335,187.13244423179745,243004.5824565444,122203.13698775461,139292.37284615677,2466,2009,1452,0
-1124.0753314630217,56.79014254574646,174.69428604866832,241324.3470932424,122895.24437588386,139313.32877320293,2492,2009,1453,0
-1115.0068775040518,67.88432415688577,162.0316192552681,239893.71492379394,123641.89261751276,139654.45799250252,2436,2014,1454,0
-1105.7455407350694,76.9287407044491,149.46431549994045,238754.54584369,124408.45503723774,140259.19559956228,2259,2021,1452,0
-1096.4912581464785,84.36200496227875,137.24473026248518,237920.4572023114,125164.3030666888,141084.18079649308,2242,2025,1450,0
-1087.4234976205396,90.48619218344533,125.54619048191057,237382.20879408155,125884.52867894604,142096.80652020368,2176,2030,1451,0
-1078.680596284067,95.49699720305408,114.49160508962233,237115.47879025666,126551.95342895546,143271.5805255068,2103,2026,1452,0
-1070.36063038669,99.51524093934934,104.19903824803906,237088.9211030722,127157.88272299299,144586.07278248385,2112,2034,1453,0
-1062.5296900662145,102.61926599247845,94.80631440711933,237270.11889461367,127700.29199917137,146018.2597284623,2101,2039,1452,0
-1055.2301338846025,104.8668528788021,86.46447961857943,237628.35211368435,128180.51097171044,147546.1583816471,2095,2047,1451,0
-1048.4868401489116,106.3048170886882,79.31630240653533,238135.66331346246,128600.56117259225,149148.7003480696,2112,2039,1454,0
-1042.3118201212642,106.97157496693741,73.470788571724,238767.63153495712,128961.69450890525,150806.72251692397,2176,2037,1454,0
-1036.7074148803974,106.89823726435935,68.98195548036814,239503.96394080293,129263.88280438044,152503.46035392967,2205,2044,1450,0
-1031.6682469555913,106.11375100363644,65.84117576768948,240328.80283949722,129506.1778007257,154224.2856928661,2237,2032,1451,0
-1027.1819661846503,104.65485891310607,63.98322696684179,241230.79787743624,129687.63564438591,155955.95926740367,2293,2029,1452,0
-1023.2287507057562,102.57550082104245,63.29955538281641,242202.84931417453,129808.23781570714,157685.87442719296,2343,2022,1452,0
-1019.7797799801357,99.94953009954095,63.65402762790322,243241.23944740725,129869.36979242315,159401.7030292283,2425,2038,1453,0
-1016.795607984275,96.86516698951593,64.89910295206307,244344.11725389556,129873.82555158358,161091.59102727284,2477,2025,1451,0
-1014.226290378003,93.41514963419941,66.88835725664677,245509.8758596755,129825.5205780314,162744.65574048748,2483,2042,1453,0
-1012.014612822332,89.68761202254093,69.48284545043049,246735.9011251634,129729.09271134734,164351.52912483795,2494,2062,1449,0
-1010.1013330339276,85.75969144989088,72.55359529797106,248017.67047049766,129589.55378978308,165904.8893312843,2520,2056,1451,0
-1008.4296770818203,81.69448989682674,75.98210971375195,249348.23279951073,129412.13827579617,167399.78921341343,2534,2047,1451,0
-1006.9481248554717,77.54097150741761,79.66000283929847,250718.3257102686,129202.37591937585,168833.61276240466,2501,2054,1452,0
-1005.6125006204321,73.33490842803414,83.4898034314628,252117.1460072345,128966.25893177984,170205.7865758698,2443,2053,1451,0
-1004.387459797496,69.10003439966398,87.38706917832654,253533.32602886896,128710.32418754365,171517.39806858674,2386,2065,1451,0
-1003.2467520615097,64.85029527248385,91.28136931605958,254955.78529689796,128441.47044088216,172770.7395721463,2349,2058,1451,0
-1002.1726966986291,60.59384709967913,95.11431945748303,256374.514438102,128166.4761625878,173968.80225009168,2243,2069,1450,0
-1001.1556925313251,56.33759353072071,98.83570137000953,257781.164613721,127891.46816044356,175114.824803989,2156,2047,1451,0
-1000.1933244671699,52.09074749691691,102.40011712796681,259169.27328593816,127621.57710706515,176211.9716151496,2029,2056,1451,0
-999.288145094261,47.86741532903867,105.7653936187157,260534.2494288052,127360.76184499988,177263.10266002602,1886,2060,1452,0
-998.4449085463604,43.688348318076144,108.89219841490714,261873.18726944854,127111.75339515222,178270.5846111823,1774,2065,1451,0
-997.6689833595806,39.581162366097566,111.74376493467346,263184.457084355,126876.1281214534,179236.17859707636,1716,2064,1451,0
-996.9663584811303,35.57874012376656,114.28529356049924,264467.1304125379,126654.45391470946,180161.05333775637,1559,2045,1451,0
-996.3442104510951,31.71685408620649,116.48345166510065,265720.4195540887,126446.41205073161,181045.86541756682,1455,2047,1454,0
-995.8106649006716,28.031900813000423,118.30655570931975,266943.2731176506,126250.85451962089,181890.8567687408,1395,2060,1452,0
-995.3734563327853,24.55864514091097,119.72556301875932,268134.13392011385,126065.83133407259,182695.9996710935,1332,2044,1450,0
-995.0385823534968,21.328181032957787,120.71551846016747,269290.8011608414,125888.64174308098,183461.14000183632,1283,2066,1451,0
-994.8098076340873,18.366075060916348,121.25762273211066,270410.3721575525,125715.9552267939,184186.0813210104,1215,2075,1453,0
-994.6888021741547,15.690190726648906,121.34220852879737,271489.25449598255,125544.01522138351,184870.65056774,1153,2066,1448,0
-994.6753373870804,13.308897910240795,120.97166439354481,272523.18804681755,125368.86931558029,185514.74658043563,1072,2080,1454,0
-994.7672852688881,11.220560765006136,120.16237090269178,273507.28864823625,125186.58408682708,186118.36705498435,1028,2086,1452,0
-994.9607286093426,9.413820375626994,118.94570201050252,274436.20973360573,124993.45898883647,186681.66388125718,943,2079,1458,0
-995.2504236621853,7.867909418747522,117.36795406530511,275304.3809905299,124786.20518249557,187205.01113571427,874,2085,1451,0
-995.630160893009,6.5530547749114145,115.48837915389325,276106.26846196275,124562.0312996188,187689.04910257465,779,2083,1454,0
-996.0925027814206,5.4314812175792095,113.3750854827256,276836.6928517301,124318.65745139564,188134.7194467762,733,2089,1452,0
-996.6281276211453,4.459049223842452,111.10047935349496,277491.12941842846,124054.32599213062,188543.27759541958,734,2073,1453,0
-997.2255842244011,3.5872670751596134,108.7375599834432,278065.93598139385,123767.84327506128,188916.25990161247,711,2067,1461,0
-997.8718879497494,2.7657266493699137,106.35634252667795,278558.5779110917,123458.62959870795,189255.42758853795,670,2100,1461,0
-998.5534651092546,1.944571408474541,104.02043420543465,278967.8086629502,123126.73611997174,189562.7033092367,641,2105,1460,0
-999.2567924533549,1.0765519441867326,101.78447183951671,279293.72956141405,122772.7897250216,189840.0950384781,620,2128,1460,0
-999.9687211850303,0.11905438698987622,99.6919388654174,279537.755816039,122397.85929309945,190089.61086909455,654,2120,1461,0
-1000.6766624011935,-0.9639018051851475,97.7733236010501,279702.52643704443,122003.3186711888,190313.17504186867,649,2126,1457,0
-1001.3686769200391,-2.200410683467892,96.04558691818546,279791.7767133714,121590.76893209429,190512.54360974632,577,2131,1456,0
-1002.0337131541326,-3.6104849941692523,94.51338802007133,279810.19566099223,121161.99901341349,190689.21700383513,495,2136,1463,0
-1002.6620491106459,-5.206619195272241,93.17160938896455,279763.28032111196,120718.97409038538,190844.36600251094,506,2128,1466,0
-1003.2455927666846,-6.994650785297122,92.00863075248114,279657.136988604,120263.84545038745,190978.78905056106,493,2130,1462,0
-1003.7779625456756,-8.974595878824445,91.00985748113655,279498.18770429323,119798.94022733648,191092.89764322116,422,2133,1460,0
-1004.2545638176103,-11.141123004243427,90.1605282493078,279292.88028314034,119326.71975944772,191186.71651278567,398,2155,1461,0
-1004.6728502052302,-13.48387926765033,89.44726928976229,279047.4813266469,118849.69809746472,191259.90697706834,367,2150,1461,0
-1005.0329179135332,-15.988687431024747,88.85866598479208,278767.89392400236,118370.3042005009,191311.83312136726,327,2180,1634,0
-1005.3381256545845,-18.639682930960618,88.38504202072733,278459.4926413305,117890.74772639123,191341.64672855343,305,2169,1479,0
-1005.5949100629153,-21.421349429983554,88.01774309688523,278127.043671334,117412.94366909703,191348.3472407208,260,2174,1639,1
-1005.8114612172886,-24.31993397269174,87.74852977052852,277774.725868767,116938.48133456685,191330.8155353748,228,2150,1511,1
-1005.9962075361207,-27.32424491872879,87.56961685189353,277406.2293853591,116468.64287088816,191287.8515137858,208,2167,1679,1
-1006.1574605801591,-30.426089873255087,87.47454853329626,277024.90498683706,116004.46724846466,191218.24547057183,164,2165,1677,1
-1006.3043250941639,-33.62054338859864,87.45949581730723,276633.9283581125,115546.80342269989,191120.8687008686,174,2164,1687,1
-1006.4476139958557,-36.90543034361635,87.52408053323748,276236.43159127294,115096.31991960817,190994.71637645192,154,2146,1549,1
-1006.5996015616394,-40.27953077796515,87.67112424163656,275835.55264619435,114653.46997872554,190838.86478733426,99,2138,1548,1
-1006.7727865554044,-43.74053766790135,87.90565681926033,275434.39529341226,114218.43107038997,190652.3886188105,109,2142,1563,1
-1006.9787471817223,-47.28416041141984,88.23394730711632,275035.9422197407,113791.07793595345,190434.32042822544,99,2140,1565,1
-1007.2277145158395,-50.90457542364621,88.66279702087668,274642.9340017315,113371.0219014986,190183.68085170435,37,2124,1576,1
-1007.5288084265928,-54.59595696561286,89.19898655748918,274257.71332104923,112957.68884273528,189899.5431972824,43,2118,1577,1
-1007.8906660278508,-58.35439314598063,89.84895562467712,273882.1097578792,112550.40449595531,189581.09586554012,26,2149,1735,1
-1008.3221928900692,-62.17888956226577,90.61871427522713,273517.430512056,112148.45516610458,189227.694154694,0,2151,1728,1
-1008.8332610454789,-66.07083210502628,91.51379675284352,273164.54214909,111751.09564219472,188838.90863342545,13,2162,1736,1
-1009.4351509938572,-70.03248485298674,92.53921650502268,272824.0051157221,111357.51803349784,188414.58587759858,6,2189,1742,1
-1010.1406418352957,-74.06563407586623,93.69955505616605,272496.2228315909,110966.80717906049,187954.93619504312,43,2189,1749,1
-1010.9639746895539,-78.17091350047328,94.99910333324726,272181.56563450856,110577.89429473568,187460.62612542778,15,2171,1759,1
-1011.9209008667733,-82.34773020542077,96.44162605130454,271880.4325170957,110189.51824246711,186932.78498752823,3,2160,1766,1
-1013.0286376980029,-86.5946035932994,98.02953406676421,271593.2578381872,109800.19722528281,186372.85808559507,0,2159,1762,1
-1014.3055680077739,-90.90932848617976,99.7630128635222,271320.5305826571,109408.2275539319,185782.38483886883,0,2161,1791,1
-1015.77100087017,-95.28833343714017,101.6399903159648,271062.86845901376,109011.72364524793,185162.78940981338,0,2191,1755,1
-1017.4452307093344,-99.72528834841947,103.6569570800333,270821.10669381736,108608.67571640451,184515.17670957328,0,2200,1777,1
-1019.3495425301719,-104.2095513551438,105.80980995060122,270596.3402543081,108196.99954770089,183840.17471720045,0,2187,1788,1
-1021.5057974723318,-108.72507231645392,108.09434399982646,270389.89187168604,107774.56540520694,183137.86321566364,0,2222,1794,1
-1023.9358485329166,-113.24994273429017,110.50643448481738,270203.21124324034,107339.2051609304,182407.74852173968,0,2176,1810,1
-1026.6611031350571,-117.7560600906494,113.04198973011302,270037.7588242003,106888.7270897744,181648.78862662739,0,2165,1833,1
-1029.7024019443047,-122.20876407081437,115.69726491836512,269894.9109407319,106420.95686568813,180859.5094007191,0,2129,1861,1
-1033.080892116894,-126.56777608188837,118.46975183016404,269775.8526403815,105933.78674749567,180038.2073876968,0,2156,1847,1
-1036.8205196292988,-130.7897037504545,121.35874828522489,269681.4458141197,105425.22660069425,179183.15558326352,0,2136,1878,1
-1040.951038127111,-134.83110131766085,124.36457693275237,269612.1075055385,104893.44123008428,178292.6370863138,0,2175,1895,1
-1045.508034734984,-138.65296507839207,127.48607877834708,269567.7476618373,104336.72432315581,177364.74353266726,6,2073,1790,1
-1050.528185929837,-142.2250795905546,130.71751957429439,269547.8266611908,103753.42535787776,176397.13501328652,0,2073,1790,1
-1056.0426949742387,-145.52461323026162,134.04689098542005,269551.5579183922,103141.92447022586,175386.90783392888,0,2125,1952,1
-1062.073294818239,-148.52986667004984,137.45615682340286,269578.182098993,102500.71653688277,174330.48370732463,6,2088,1808,1
-1068.6339294741745,-151.21632870239512,140.92317914768608,269627.1364479307,101828.58727360619,173223.4931391846,0,2085,1830,1
-1075.7363686694898,-153.556262730706,144.4249128811649,269697.9961730777,101124.81700512914,172060.73929220063,0,2077,1873,1
-1083.3939956150066,-155.51852253886315,147.9402400797521,269790.2812670357,100389.34322581097,170836.25897124616,0,1980,1903,1
-1091.622452998434,-157.06888443519446,151.45110975023843,269903.31723932613,99622.79212457138,169543.44859552765,0,2005,1908,1
-1100.4397949690128,-158.17220098287535,154.94214826638773,270036.2084331207,98826.33478527152,168175.21308654337,9,1973,1947,1
-1109.8665701426146,-158.7948438677567,158.39917268771978,270187.8734427621,98001.49397263284,166724.10391511192,0,1916,1950,1
-1119.9249347966197,-158.90568942340138,161.8071191537383,270357.1355507829,97150.0458572738,165182.42579019413,7,1867,1975,1
-1130.6369927588114,-158.47592165855215,165.1484739914117,270542.88669353456,96274.02715444638,163542.3103070218,6,1739,2063,1
-1142.0231472778144,-157.47885095179777,168.4031480473575,270744.25888221315,95375.82007870695,161795.83549370882,7,1726,2071,1
-1154.1011162987352,-155.89055784813524,171.54983817173297,270960.71611963154,94458.24763853817,159935.2376427962,0,1701,2078,1
-1166.8854596179242,-153.691260506285,174.56809015551042,271192.06465941196,93524.58107610763,157953.1388660527,0,1709,2063,1
-1180.3864494700708,-150.86650043179998,177.439501139543,271438.41715771053,92578.4556069366,155842.74096504188,5,1585,2145,1
-1194.6075720186418,-147.40754817399957,180.14651281153,271700.14569049457,91623.69284408001,153597.9773105214,4,1536,2188,1
-1209.542260249166,-143.311500598648,182.66887978628088,271977.86035225115,90664.01482268007,151213.62134583204,1,1454,2261,1
-1225.1707280484031,-138.58182128920967,184.97966476725227,272272.4182451151,89702.79664702897,148685.44441116363,0,1407,2304,1
-1241.4571615753732,-133.22941835232876,187.0422646416321,272584.9601697834,88742.99641896752,146010.45447438394,11,1314,2336,1
-1258.34713858937,-127.27400440994047,188.80854053430528,272916.98820469115,87787.21723252394,143187.1081572862,0,1259,2352,1
-1275.7653506195177,-120.74562919680456,190.21801969914029,273270.46915450064,86837.84292168968,140215.48164140387,9,1163,2406,1
-1293.6136666517295,-113.68623311570758,191.198353680302,273647.9440832149,85897.23009433929,137097.45533264932,0,1128,2414,1
-1311.7690861129915,-106.15088046279072,191.66677790002151,274052.6456141058,84967.92268024427,133836.9085269881,0,1062,2439,1
-1330.0816693285967,-98.20827497327856,191.53284237367248,274488.6329888595,84052.87070036533,130439.8583364822,0,915,2514,1
-1348.3731815517392,-89.94061277463808,190.7030200325429,274960.9490788356,83155.65361281758,126914.48767711245,0,883,2536,1
-1366.4364694401047,-81.44322660509255,189.08659571537825,275475.729798257,82280.70099310756,123271.18374866367,0,838,2566,1
-1384.0367059891464,-72.82301306303425,186.60347105090653,276040.12522381434,81433.48869994127,119522.64614898924,4,751,2616,1
-1400.9166365922395,-64.19401614978578,183.19540321330464,276661.9484477453,80620.68473658037,115683.94713418178,0,701,2641,1
-1416.804323029002,-55.671429870375455,178.8375608563658,277349.05627977615,79850.18806156915,111772.63407252633,0,742,2606,1
-1431.4201731345327,-47.36583017803243,173.54491963742535,278108.3050711015,79130.84593653363,107808.98119162131,2,701,2643,1
-1444.4815331234847,-39.377585431050214,167.3716946682827,278943.9613164614,78471.68696529792,103816.2807246983,0,692,2653,1
-1455.7030009569426,-31.79352409454173,160.40556049325127,279856.040854125,77880.99625662235,99821.17636499372,0,700,2630,1
-1464.7929898208376,-24.689667336647783,152.7587761944104,280839.0885038771,77365.75030614343,95854.03984020611,0,664,2635,1
-1471.4504453953034,-18.13965955610191,144.558473649851,281881.3523649793,76931.5972933513,91949.25340897062,0,688,2608,1
-1475.3652470559564,-12.223712125021343,135.94018247838886,282964.28424260207,76583.32223623156,88145.40954874718,9,723,2567,1
-1476.2260657543516,-7.033250931637779,127.04619839347056,284062.5327421284,76325.70088093191,84485.35039294868,0,772,2529,1
-1473.7374979104002,-2.6701656661145385,118.02551297688798,285144.473756248,76164.52239329444,81015.85099570862,0,879,2425,1
-1467.640569395236,0.7583278249514673,109.03171335660839,286173.1356805737,76107.31019748989,77787.10364650846,0,1041,2303,1
-1457.730124253433,3.148523858414536,100.21559374076791,287107.86222985084,76163.3282636484,74851.97804931119,0,1183,2195,1
-1443.868442242755,4.411900360679205,91.71191120575307,287907.1683101537,76342.92818223468,72264.74399223611,0,1243,2133,1
-1425.9941236233499,4.489596853830828,83.62594449453152,288532.09593119024,76656.67906314855,70079.59299030753,0,1359,2046,1
-1404.125212141034,3.3699018158354295,76.02531722687661,288949.5733250278,77114.63564549544,68349.2541132793,0,1456,1957,1
-1378.3569974181453,1.1045565116337963,68.93901840454555,289136.1640655848,77725.8295977757,67123.430829118,0,1547,1871,1
-1348.8508785291256,-2.181278084664204,62.36408777723148,289081.4481839829,78498.0983393332,66447.35626170653,0,1653,1805,1
-1315.8132521016005,-6.287143786537212,56.279182675719305,288789.8715806548,79438.31972381297,66361.01491948089,0,1751,1694,1
-1279.475209637691,-10.944728985509265,50.66333868313779,288281.21782196313,80552.69359826944,66898.94611934984,0,1791,1655,1
-1240.0819314042994,-15.838196757442061,45.5140496457083,287590.1628752852,81846.48843167904,68090.35862481821,0,1824,1630,1
-1197.88942589912,-20.63715805696896,40.85657021077595,286764.51102755027,83322.86046574413,69959.37896092302,0,1828,1618,1
-1153.1662734820204,-25.030479512087627,36.74172279399995,285861.6553877538,84980.8622484756,72525.21789152504,0,1837,1596,1
-1106.2003994728084,-28.752585690642732,33.23530967381242,284944.1225297167,86813.55637378352,75802.03552788918,0,1878,1563,1
-1057.308877290121,-31.605586187259274,30.401811324913126,284074.84781006747,88807.4657081426,79798.44384412968,0,1906,1538,1
-1006.8473386754688,-33.4754747500596,28.283670605452073,283311.9688551209,90943.80791758692,84516.79943547596,0,1936,1513,2
-955.2133930891102,-34.33586789520764,26.88470574235273,282704.4776642881,93200.86928770521,89952.51221545086,0,2008,1452,2
-902.8415164575184,-34.23954800168777,26.168006634089043,282290.36301874963,95557.05824146098,96093.68516182629,0,2007,1456,2
-850.1950276775877,-33.302529801970536,26.067095626557578,282096.7627354714,97994.49573812456,102921.21568282695,0,2011,1455,2
-797.75769798731,-31.68057373223058,26.505620339412292,282140.9310358717,100501.77364984297,110409.00364438415,0,2010,1451,2
-746.0216818877188,-29.537039429396238,27.422096566339935,282431.6299710605,103074.26462954341,118524.31441336061,0,2011,1451,2
-695.4748534828282,-27.01171514444954,28.788509714734687,282970.92673430895,105712.08923117637,127228.76821550095,0,2010,1452,2
-646.5895593816956,-24.199641289546975,30.611607498005498,283755.9442390861,108417.13519802729,136479.5796606702,0,2008,1454,2
-599.8083741282891,-21.138347508190936,32.91925930944208,284780.14474504784,111190.25394005733,146230.49558284448,0,2010,1452,2
-555.5300518050717,-17.80422058390844,35.74435933366217,286034.25598406163,114029.0796952031,156432.55857664841,0,2010,1451,2
-514.1012835411766,-14.124314382182535,39.11515837199715,287506.9324831131,116927.10426078746,167035.11513425296,0,2010,1451,2
-475.8131589544908,-10.003137060322416,43.05066624576551,289185.07736999093,119874.36637481976,177987.28329367677,0,2008,1453,2
-440.9032750871069,-5.3526206299642265,47.55763849911879,291053.7743111787,122858.94947354958,189239.1152546487,0,2008,1454,2
-409.56579982412563,-0.11653476852145722,52.629732697142515,293095.93760600575,125868.56347950044,200741.88800384637,0,2007,1454,2
-381.96562242118114,5.710705808026233,58.24931490831641,295291.95476407866,128892.18982952161,212448.06979921894,0,2009,1452,2
-358.2498007940148,12.074525298392969,64.39047169909078,297619.5932660071,131921.37195586532,224311.06148412227,0,2008,1454,2
-338.55222603562487,18.86725804154963,71.0239272390415,300054.57067292667,134950.6848704614,236284.705275935,0,2008,1453,2
-322.9911776394844,25.951095028648307,78.12586526058436,302571.9312248471,137977.5941085727,248323.04292828607,0,2007,1455,2
-311.6631681813542,33.18420829218399,85.68853260543885,305147.50165166095,141001.91162901124,260380.1539762028,0,2007,1454,2
-304.63708238580205,40.43836593325597,93.72831758645229,307758.68197409145,144024.79560204898,272410.1324281595,0,2009,1452,2
-301.95010330653594,47.607865468922945,102.28833196140077,310384.54499434144,147047.39798463683,284367.8086869854,0,2008,1453,2
-303.60570582429045,54.61204770280453,111.43400673243865,313005.4202903105,150069.54659472746,296209.6801028256,0,2009,1454,2
-309.5726387220215,61.39090477043484,121.24275061164097,315602.2307845121,153088.8671632425,307894.54264608724,0,2007,1455,2
-319.78351580172006,67.8955404665131,131.7910184780123,318155.94930486067,156100.46216563127,319384.29516367416,0,2006,1455,2
-334.1336520946632,74.0781153762687,143.14388861022516,320647.3093268381,159097.0084701227,330644.53584053996,0,2009,1452,2
-352.48203395728825,79.88452810784328,155.35006527162864,323056.756238547,162069.2399135721,341644.4871657418,0,2006,1455,2
-374.65555652486216,85.250272052875,168.4392409198949,325364.56875993905,165006.77816778008,352356.8150872339,0,2006,1454,2
-400.4544832296915,90.09989471629547,182.4185413701218,327550.9391147574,167898.82580861478,362757.4000133434,0,2005,1454,2
-429.65691479764473,94.35091689553481,197.26942683243806,329595.9669588478,170734.38353656518,372824.88604233233,0,2008,1454,2
-462.02275181117926,97.92078161386958,212.94686831368819,331479.7423454774,173502.2548252705,382540.36881533876,0,2008,1453,2
-497.29647502624044,100.73298077704196,229.3798931005832,333182.477709317,176191.0437346722,391887.1235444511,0,2008,1452,2
-535.2090757091394,102.72063622081835,246.4726387311607,334684.55840239575,178789.23752758862,400850.29738503584,0,2006,1455,2
-575.4819215444389,103.82875601827322,264.10594393127957,335966.55536059086,181285.49995352046,409416.94602006825,0,2008,1452,2
-617.8310757719938,104.01522029247464,282.1390684830804,337009.2329237527,183668.99959548275,417576.1297249511,0,2008,1452,2
-661.9696788820922,103.24898204655624,300.4129061035853,337793.59863588284,185929.62881331609,425318.7050081632,0,2008,1452,2
-707.610046530857,101.5051307665366,318.7558982252886,338301.0598252806,188058.23108643334,432637.0920484443,0,2007,1455,2
-754.4653173104886,98.75880730838492,336.9895227033787,338513.615096189,190046.77914880333,439525.00213349843,0,2005,1455,2
-802.2503905221389,94.97915414648651,354.93131856499554,338414.1177206201,191888.44143831832,445977.03231839405,0,2005,1455,2
-850.6845447007091,90.12238322682148,372.3973053996987,337986.78578182764,193577.672808138,451988.39597319457,0,2001,1458,2
-899.4945124904439,84.12538783944996,389.204492196573,337217.9315351476,195110.28570425013,457554.7119425295,0,2001,1457,2
-948.4165722851792,76.90324203202276,405.17458575813134,336096.9107181742,196483.34857931468,462671.70674636017,0,2005,1458,2
-997.199334815864,68.35133765550317,420.1410259218466,334617.38153798756,197694.93238445075,467334.99617999373,0,2009,1452,2
-1045.6053397051276,58.350530356158124,433.95702884659744,332778.5704356829,198743.77424373478,471539.83968448796,0,2008,1453,2
-1093.4095075576404,46.77405795560389,446.50137988338247,330586.1124613041,199628.85386084687,475280.675420175,0,2008,1454,2
-1140.396828020165,33.49555985456157,457.6822612109823,328052.39558255795,200348.89818180402,478550.5699648989,0,2008,1452,2
-1186.359974864846,18.396054997710348,467.43851058360633,325196.5098023704,200901.9340276024,481340.7127407962,0,2007,1454,2
-1231.0970550545665,1.3666649719473343,475.73565324642215,322043.7054484953,201285.01973176966,483640.0417589323,0,2007,1455,2
-1274.411624871996,-17.694124207256962,482.55621182424966,318624.3236042526,201494.18695826232,485435.1110736595,0,2008,1454,2
-1316.1140123020282,-38.88507696285635,487.8888007661626,314972.77719673514,201524.58539732164,486710.12358576374,0,2008,1454,2
-1356.0223275684261,-62.302318431549054,491.72325283151525,311127.0682987502,201370.91947697572,487447.0535807613,0,2007,1453,2
-1393.9636173526999,-88.03224150395994,494.055194360639,307128.58948316914,201028.2017244613,487625.90736792196,0,2007,1455,3
-1429.7731934246694,-116.13972101479959,494.8958807672894,303021.93944120983,200492.5136455306,487225.0307358271,0,2008,1454,3
-1463.2912222987395,-146.65505839735204,494.27990230117155,298854.45495782525,199761.42579148937,486221.37492716964,0,2008,1452,3
-1494.3603466367515,-179.5624021052299,492.26728951231377,294675.15292971005,198834.05555848268,484590.8173658475,0,2008,1452,3
-1522.8261534100602,-214.79200811774777,488.9414164577896,290533.5060304901,197710.94014748035,482308.5846912023,0,2006,1454,3
-1548.5393443866824,-252.21654556391525,484.40554052939007,286478.3199517993,196393.85868112053,479349.7590568814,0,2005,1455,3
-1571.3589456421525,-291.64912000781766,478.77971516136677,282556.3894560662,194885.65373134095,475689.90338941436,0,2002,1456,3
-1591.1551418924416,-332.84059199012813,472.1983213790021,278811.2593557794,193190.1059808524,471305.81653975794,0,2010,1455,3
-1607.8123679739476,-375.4773958476446,464.8066130260222,275282.50126723695,191311.78480701428,466176.39468504884,0,2010,1451,3
-1621.2352419357044,-419.1827505347451,456.75466754556123,272005.19233945705,189255.735314405,460283.599841737,0,2008,1454,3
-1631.3557841510894,-463.5200576809221,448.19058608298815,269009.48682463384,187027.17939159842,453613.53332017903,0,2007,1458,3
-1638.13969302625,-507.99799156881204,439.25482588824826,266320.2936123576,184631.48134597743,446157.5647081328,0,2008,1456,3
-1641.5921463652337,-552.0793151765985,430.07509840642746,263956.8199476867,182074.34584930784,437913.47966621025,0,2009,1452,3
-1641.7615821814763,-595.1894434299873,420.7625264359242,261932.12508823114,179362.12803679204,428886.6834028577,0,2010,1456,3
-1638.7388201272968,-636.7192718959193,411.40967600460135,260252.981371297,176502.08255692132,419091.3573324081,0,1978,1477,3
-1632.6522094040538,-676.0224740144099,402.0891006341594,258919.98575674128,173502.38853155184,408551.41932911886,0,1975,1484,3
-1623.6642328838896,-712.410155427792,392.8524318707006,257927.74558391614,170372.10535471287,397301.4633992511,0,1973,1483,3
-1611.9748015559117,-745.1506084550633,383.7323300426101,257264.8556400347,167121.35415361307,385387.58310223045,0,1965,1487,3
-1597.8270272771194,-773.4817175200209,374.7490109497902,256913.42711286194,163761.83797629536,372867.6349948747,0,1962,1494,3
-1581.5059521224705,-796.632114558091,365.91842234008374,256848.3763773133,160307.6260967253,359811.18288944307,0,1959,1495,3
-1563.326340217292,-813.8504421369041,357.25522401455953,257036.8931351703,156776.00562239875,346299.2799560367,0,1958,1492,3
-1543.6143586986527,-824.4504904154021,348.7682250345816,257438.3623036416,153188.28274381868,332423.8032198623,0,1960,1489,3
-1522.6932299816826,-827.863300788759,340.4561873222776,258004.90154089284,149570.5003447583,318286.98520942207,0,1969,1483,3
-1500.8751833445453,-823.6809419717241,332.3115848628189,258682.7261372431,145953.69765352944,304001.21468221396,0,1962,1490,3
-1478.4528768322546,-811.6901880809415,324.3241520677859,259414.24242225083,142373.2340222572,289687.85786541115,0,1962,1490,3
-1455.6903841677083,-791.8937459838596,316.47506556203376,260140.26039856925,138867.3564899169,275475.0711503242,0,1965,1488,3
-1432.819802982222,-764.5182854578169,308.72982142030673,260802.39723574548,135475.31058760735,261494.4529944979,0,1967,1489,3
-1410.0436423628425,-730.0145185734095,301.0376576545078,261346.0497480651,132235.1897770629,247875.67110727032,0,1966,1491,3
-1387.5383478736703,-689.0442594729675,293.3356150084557,261723.01818277274,129182.36721233012,234740.92182113265,0,1964,1494,3
-1365.4545560099104,-642.4488002372344,285.5558274358012,261892.9270920246,126349.00361888821,222201.3910024873,0,1966,1490,3
-1343.9129558851123,-591.2128692913717,277.63442170539145,261823.83791954516,123764.00477365166,210355.2376106523,0,1964,1492,3
-1322.9972658777351,-536.4379188849051,269.51869287210235,261492.39244597396,121452.64461763942,199286.32128367026,21,1966,1488,3
-1302.7462413083163,-479.3212402834319,261.1708013916907,260883.44636673573,119435.61826988895,189063.4183139802,174,1970,1481,3
-1283.1492210061697,-421.1391468182288,252.5672263048258,259989.39904312452,117728.04910138306,179739.99572898695,483,1975,1479,3
-1264.150894578812,-363.22434460929895,243.69170679900085,258809.5326601709,116339.02725101926,171354.49200721955,906,1978,1479,3
-1245.6663899225102,-306.91427402794443,234.52048646538088,257349.63379880367,115271.57095462366,163930.28820514126,1295,1984,1473,3
-1227.602112720667,-253.46896387864226,225.0039350782232,255622.42570866656,114522.54301041158,157475.08152150974,1593,1984,1480,3
-1209.8765839157518,-203.96051696221457,215.05152978001084,253649.9991702304,114081.96676940005,151980.17904177363,1663,1985,1471,3
-1192.437035783197,-159.14624519021984,204.5404496338114,251469.14092206847,113932.09123103703,147419.95044648484,1842,1974,1480,3
-1175.271648408675,-119.39600389906299,193.3718591385368,249137.8312608229,114047.84483835576,143751.7508261069,1826,1976,1477,3
-1158.4218410098229,-84.72214035510333,181.55349456261925,246738.2595476305,114399.23462518072,140917.25740870307,1877,1975,1480,3
-1141.9915536072433,-54.88062077121637,169.2485096237554,244371.02439829707,114954.31566990972,138846.21179890065,1830,1977,1476,3
-1126.1417148948344,-29.49085720749853,156.7544410809832,242140.1805976852,115681.04991111775,137462.1379560231,1745,2008,1459,3
-1111.0668758645086,-8.124338857691981,144.432034708561,240137.63068788237,116547.15247389756,136687.63724574918,1736,2005,1459,3
-1096.9596133052119,9.656093864715144,132.63181575916852,238435.28754308054,117518.68514501734,136447.6582329204,1731,2005,1455,0
-1083.9706308087182,24.280715122331543,121.64536363482668,237084.60956629078,118559.2916168852,136671.35298165656,1753,2014,1454,0
-1072.1810938852686,36.16252599399751,111.68488904492159,236118.95049389728,119631.18996553672,137293.05159585684,1754,2010,1451,0
-1061.6000619208382,45.69322088390439,102.88454711495575,235555.84169024782,120697.9136576486,138252.25927723135,1709,2010,1451,0
-1052.1807747327152,53.24479076066132,95.30947781033109,235398.4252441124,121727.95822477885,139493.01260346416,1723,2020,1452,0
-1043.8405150352041,59.17022643604345,88.96413669496954,235636.31107715995,122697.59307497228,140963.25768944417,1691,2026,1451,0
-1036.4762230853908,63.79684295950936,83.80086507123534,236246.55778102815,123591.7021016565,142614.83833110295,1722,2030,1453,0
-1029.9777537880927,67.41198958488077,79.73174995213724,237195.69232296076,124403.02167076875,144404.34377919202,1746,2036,1454,0
-1024.24051050033,70.24777042060599,76.64283229986597,238442.86893039552,125130.57464995926,146294.39580217743,1826,2035,1451,0
-1019.1779195587432,72.47004402856828,74.40572750825682,239943.09346363528,125777.9874901637,148254.44265091175,1826,2035,1455,0
-1014.7326420582241,74.17651305314895,72.88393688103757,241650.07721926435,126351.84798389077,150260.32681461485,1863,2038,1455,0
-1010.8789228042717,75.41074967314654,71.93635359540856,243519.25710646124,126859.8486587374,152292.67249071374,1875,2045,1450,0
-1007.6124203265904,76.18675271895998,71.42163338126832,245510.61205459945,127309.05496807866,154334.95837554586,1869,2047,1453,0
-1004.9331472604812,76.50974015480573,71.20469131199349,247590.51505440177,127704.76022092746,156372.17604299917,1924,2054,1454,0
-1002.8286727152752,76.38863337792955,71.16333279189499,249732.59216384738,128049.78625656867,158390.25189732746,1993,2047,1455,0
-1001.2643758290303,75.8419980145656,71.19155285828798,251917.499080035,128344.15687464178,160375.96840321185,2022,2060,1451,0
-1000.1834450798797,74.89908531348777,71.2001856004175,254131.41343236342,128585.47022383357,162317.2372221884,2010,2064,1450,0
-999.5130697260875,73.59920979545892,71.11895593387808,256363.6099937943,128770.05724267336,164203.64859391074,2057,2062,1452,0
-999.1722965579764,71.99169265254316,70.9008629519633,258604.07664469743,128894.37533074831,166026.98391194237,2062,2057,1451,0
-999.0798397438599,70.13590731124226,70.5262319607871,260841.81529917306,128956.10963425913,167781.43056670506,2022,2065,1450,0
-999.161632688074,68.0999975275266,70.00378074260018,263063.72449394927,128954.94628020615,169463.57716800118,2027,2054,1449,0
-999.3560768466832,65.957599451634,69.36745912081736,265253.99704979156,128892.96007180143,171072.2477977676,1970,2055,1453,0
-999.6152758313026,63.78183049878163,68.66785543347952,267394.3107334034,128774.43458902709,172608.1256781932,1852,2054,1459,0
-999.9036735383171,61.636422797792584,67.95847147331772,269464.8482851643,128605.20563807315,174073.22907984746,1771,2054,1463,0
-1000.1962085277194,59.567453837686024,67.28229180572049,271445.6030841056,128391.90911768356,175470.37290535806,1637,2059,1452,0
-1000.4766216722575,57.599329689368425,66.6640325581742,273317.6611029351,128141.37182064056,176802.67276488978,1618,2045,1454,0
-1000.7357887524292,55.73474361525798,66.10780694384347,275064.6334280513,127860.08993002029,178073.09427349898,1486,2047,1463,0
-1000.9702958566968,53.957011745025376,65.59819436779188,276673.91807634174,127553.8146345532,179284.10760950632,1289,2060,1472,0
-1001.1810990452935,52.23478499041036,65.1042569492957,278137.370639571,127227.30345131068,180437.5421073674,1235,2055,1473,0
-1001.3716265580682,50.529207205038794,64.58610471167312,279451.5608883852,126884.15498985634,181534.64130862374,1129,2051,1477,0
-1001.5456046998622,48.801263069884236,64.00180644522956,280617.74522376753,126526.72057396863,182576.176314205,1056,2062,1475,0
-1001.7054904691884,47.0173820698765,63.313101111162844,281641.4046504194,126156.1971710238,183562.5246393779,975,2068,1478,0
-1001.8519520835285,45.15377487687114,62.4908686604841,282531.3583607168,125772.91938921424,184493.7560994248,893,2086,1471,0
-1001.9844103179836,43.19956241482864,61.5198859317086,283298.7298927007,125376.72489549214,185369.7103877616,846,2082,1477,0
-1002.1022656094585,41.15787234999879,60.400610887784616,283955.8917458513,124967.26730203458,186190.03870506244,739,2070,1475,0
-1002.2060746129937,39.0447311829826,59.147837613352976,284515.31007776526,124544.2488909342,186954.26149263832,659,2077,1483,0
-1002.2978997444754,36.88616640024442,57.78786876633633,284988.48540986,124107.56856757765,187661.84160229232,603,2069,1481,0
-1002.3805638054052,34.71336830137733,56.354684563589885,285385.2165797477,123657.38905330152,188312.2856352251,534,2080,1479,0
-1002.456411760005,32.555933220012065,54.88498259048963,285713.1194755981,123194.17346753161,188905.3354172875,512,2086,1485,0
-1002.5265698589328,30.43559190995702,53.413875596443525,285977.38940172165,122718.73977650674,189441.18246432405,454,2088,1487,0
-1002.5911033081456,28.362693283795977,51.973073947933756,286180.940668689,122232.32431514552,189920.60988402757,413,2094,1501,0
-1002.6495768916293,26.335077766518317,50.590902818303746,286324.9129090457,121736.61671537475,190345.07243492815,310,2086,1517,0
-1002.7014294291582,24.33857508732542,49.29271487022248,286409.3009411093,121233.75334805688,190716.71409764336,266,2086,1514,0
-1002.7462156717334,22.349073369347224,48.10114343674782,286433.56750257936,120726.2396257095,191038.31182708597,270,2094,1510,0
-1002.7839834766435,20.33581425897226,47.0363513919703,286397.29456128174,120216.78126486525,191313.18109802433,250,2091,1523,0
-1002.8157327675973,18.26492824030101,46.11644487253861,286300.75075382355,119708.11254702396,191545.07219185954,291,2082,1533,0
-1002.8437152476373,16.1029084346782,45.357686027580684,286145.188012745,119202.88964075348,191738.05047446076,269,2093,1545,0
-1002.8712265466086,13.820444776906866,44.77411266184297,285932.9115515439,118703.60740513366,191896.35284620247,232,2091,1548,0
-1002.9017698566913,11.395755154756754,44.37668181590407,285667.23444881284,118212.53232710478,192024.25062106052,244,2103,1552,0
-1002.937978673746,8.816027145387903,44.17210840428551,285352.3430504079,117731.67074496049,192125.94626961768,176,2110,1551,0
-1002.9808067299992,6.077068571645757,44.161597499600056,284993.0905539884,117262.75010802774,192205.48980168486,175,2115,1556,0
-1003.0292390010081,3.1821871011182425,44.340151716693285,284594.7942897316,116807.22082366672,192266.70642717206,147,2126,1571,0
-1003.0804031271205,0.14062120308470286,44.697015782896685,284163.04830368893,116366.2996073145,192313.14890640206,139,2138,1591,0
-1003.1298404820337,-3.034692275216126,45.216817533587964,283703.49061797914,115941.0371387662,192348.08289242486,118,2155,1737,0
-1003.1720311863486,-6.329506932237116,45.88069798334676,283221.602498121,115532.39221935817,192374.49350147945,109,2153,1742,0
-1003.201588973778,-9.730305830366046,46.667781716309285,282722.6758021824,115141.29346810958,192395.06767077054,149,2153,1751,0
-1003.2150064779465,-13.225886442876824,47.55737971189589,282211.9266112107,114768.65928083388,192412.1109014634,88,2151,1743,0
-1003.2118943033742,-16.807691012196116,48.53092478777945,281694.63478062546,114415.37210270688,192427.4203110795,122,2141,1763,0
-1003.1948041572039,-20.468228701922925,49.57257289376157,281176.2000567555,114082.2035538072,192442.16856397165,149,2150,1750,0
-1003.1677700178473,-24.198461724503957,50.668608043038894,280662.0714379312,113769.69092277331,192456.83531009537,103,2160,1755,0
-1003.1346781029648,-27.985937850901053,51.8064441939228,280157.6135197253,113478.03489253612,192471.20932954396,50,2148,1787,0
-1003.0985493252625,-31.814795978262595,52.97403036979757,279667.9588072388,113207.08866436419,192484.47888428485,29,2155,1775,0
-1003.0616129940939,-35.66708515218251,54.1600232362615,279197.8279930611,112956.42418083879,192495.3990538754,16,2162,1770,0
-1003.0256489999812,-39.52406156145107,55.354461950615125,278751.36350805924,112725.4253631375,192502.48065347187,0,2142,1781,0
-1002.992664904807,-43.367360112391545,56.5493987584598,278332.01401442045,112513.3627398059,192504.1614074556,0,2137,1811,1
-1002.9655594119687,-47.18053980534892,57.73896529554761,277942.425403475,112319.41747465738,192498.94167329522,2,2160,1788,1
-1002.9481157336777,-50.95035069984952,58.918755803733255,277584.36403813143,112142.66244441297,192485.43910363605,1,2183,1794,1
-1002.9446856945481,-54.6670698726302,60.08511762890681,277258.75412090175,111982.040370964,192462.34636325014,9,2195,1787,1
-1002.9602465514523,-58.324284017378275,61.235006002340896,276965.8191930216,111836.37460542691,192428.3420962464,0,2194,1803,1
-1003.000869753557,-61.9183885397469,62.3664306781617,276705.2427558683,111704.41514548163,192382.0168276408,0,2192,1802,1
-1003.0744532650065,-65.44764392642092,63.47918712149609,276476.2900893248,111584.88894049948,192321.83541635468,0,2213,1807,1
-1003.1914215489162,-68.91089736045214,64.5754977485827,276277.885926722,111476.52099723063,192246.11715467565,0,2237,1794,1
-1003.36480240115,-72.30638510123538,65.66000092391758,276108.6523390532,111377.99730504437,192153.0132285675,0,2245,1789,1
-1003.6095712936926,-75.63096407626486,66.73881949192577,275966.9180725401,111287.86705983136,192040.48143268927,0,2242,1800,1
-1003.9418897142838,-78.87996056811151,67.81828360683602,275850.72754639183,111204.44678337642,191906.2805610882,0,2241,1804,1
-1004.3787698714702,-82.04779733465658,68.90417686590173,275757.8620636792,111125.79460019579,191748.00787096476,0,2216,1845,1
-1004.9382025013696,-85.1291858983993,70.00178560583151,275685.8654186929,111049.75739137127,191563.16838159962,0,2218,1839,1
-1005.6394763708286,-88.12008182883162,71.11637527160467,275632.07153515914,110974.04648225753,191349.23200263747,0,2236,1843,1
-1006.5033642919942,-91.01800242687763,72.25361072856035,275593.6468677611,110896.29402886178,191103.63707735963,0,2283,1835,1
-1007.5520643976976,-93.82197539133298,73.41966498462963,275567.65730384877,110814.06691819454,190823.74414902815,0,2206,1895,1
-1008.8089725587395,-96.5323064279462,74.62109542195792,275551.1446892995,110724.8506432232,190506.79065309,0,2207,1887,1
-1010.2983615369462,-99.15032668288573,75.86487446301855,275541.19762766693,110626.03763911265,190149.87525912523,0,2180,1911,1
-1012.0449618970077,-101.67811996216079,77.15876068670887,275535.0141129563,110514.94382093892,189749.95980487656,0,2200,1916,1
-1014.0739214685707,-104.11793495866674,78.51191514952548,275529.9456218927,110388.84618189507,189303.896900384,0,2183,1915,1
-1016.412289380582,-106.47146952681264,79.9356808596435,275523.5202489838,110245.01884932962,188808.50539033563,0,2139,1955,1
-1019.0914166901125,-108.74052598655621,81.44302397129987,275513.4627992555,110080.73231322099,188260.67982879508,0,2139,1945,1
-1022.1466663487984,-110.92986704070061,83.04466638445257,275497.78850002965,109893.164829463,187657.50277400788,0,2175,1917,1
-1025.6120830306893,-113.04863024549853,84.74466518737594,275475.0869847562,109679.25070278144,186996.35538891138,0,2159,1949,1
-1029.5136839604834,-115.10738141353242,86.54056448650881,275444.9308634996,109435.65024016381,186274.9937061554,0,2182,1976,1
-1033.8678168867423,-117.11437973832368,88.42869439572061,275408.12803016126,109159.03583043514,185491.46861586583,0,2178,1950,1
-1038.6851956227038,-119.07352944325393,90.41160498246835,275366.6294104934,108846.59690599392,184643.8680297427,1,2190,1956,1
-1043.975294429983,-120.98271782897086,92.50348507218953,275323.19434765866,108496.3947126662,183730.0870959862,0,2167,1993,1
-1049.7478988952403,-122.83311471844118,94.73012422706513,275281.0442693491,108107.31558148644,182747.76654301325,0,2145,1987,1
-1056.012761608503,-124.61019690801743,97.1241913321885,275243.6123328846,107678.71589724794,181694.33239137524,3,2167,1967,1
-1062.778592223152,-126.29521421748974,99.7197338864081,275214.39046012366,107210.08563897487,180567.07662238565,0,2169,1991,1
-1070.0515539527225,-127.866229913092,102.54843519202221,275196.8456124469,106700.98418307403,179363.24982698078,0,2143,2021,1
-1077.8337065835756,-129.29888666949438,105.63779658723927,275194.3652079122,106151.22529834046,178080.12116897834,4,2091,1890,1
-1086.1227068135208,-130.56718382258794,109.01074279642913,275210.2269811459,105561.11975361744,176715.0247332052,8,1992,1973,1
-1094.9133679395009,-131.64460573167324,112.68588146889599,275247.589323872,104931.62349812803,175265.42589191778,4,2009,1915,1
-1104.1995396802356,-132.50531217708559,116.67742130163988,275309.48547404545,104264.3625223948,173728.97969815473,0,1930,1965,1
-1113.9746088459087,-133.12455294027032,120.99399507573342,275398.84074456454,103561.5245935696,172103.50242872725,0,1881,2038,1
-1124.230689055567,-133.47839238112834,125.63651856271407,275518.5411638497,102825.6252396164,170386.8342779885,2,1880,2032,1
-1134.9572239241973,-133.54337855055633,130.59604757271418,275671.5240980802,102059.29090427374,168576.7389111616,10,1795,2089,1
-1146.139621377924,-133.29641636085563,135.85215528559726,275860.8331032409,101265.16491914207,166670.92514629115,0,1763,2139,1
-1157.7582561893075,-132.71534518410834,141.37177840518532,276089.62725511874,100445.88421235207,164667.09752983737,3,1754,2171,1
-1169.7874423436913,-131.78046673646915,147.1085366355398,276361.1656036506,99604.10436867813,162563.01006538095,5,1702,2187,1
-1182.194098415314,-130.47649233620393,153.00273344501213,276678.794149961,98742.59471003053,160356.5100199478,5,1675,2197,1
-1194.9363659582843,-128.79457886169857,158.9822354759097,277045.96719412867,97864.36908111793,158045.51582975796,7,1571,2243,1
-1207.9620810473066,-126.7341753311639,164.96372118456094,277466.30024625733,96972.80863910558,155628.02397669796,5,1496,2300,1
-1221.2070411609448,-124.30424001682782,170.85391240740614,277943.6519212066,96071.7413420129,153102.19869630324,0,1449,2303,1
-1234.5936142617486,-121.52385485604708,176.55123496477296,278482.2460020984,95165.4654615544,150466.44862796296,14,1317,2360,1
-1248.030025271454,-118.42242259804546,181.94796826664088,279086.77376788494,94258.77532293381,147719.5202981468,4,1198,2395,1
-1261.4110194028108,-115.03912128066953,186.9334944920022,279762.38823629887,93357.02489570733,144860.64487327822,6,1138,2421,1
-1274.620698403237,-111.42126172562907,191.39963395892144,280514.5691699277,92466.18745077745,141889.66159145386,0,1124,2410,1
-1287.5364274117803,-107.6220887189522,195.24645654734712,281348.8638875246,91592.87263225972,138807.17493423488,12,1021,2417,1
-1300.0325784222102,-103.69871212214707,198.38644974296503,282270.43341469386,90744.19981983233,135614.8088382694,0,985,2442,1
-1311.9839086339664,-99.71038431621487,200.74683667504155,283283.34990062175,89927.42845065483,132315.4851768788,0,870,2483,1
-1323.2674890856865,-95.71759387594295,202.2690719787095,284389.8098859248,89149.49332577804,128913.7436714094,0,841,2516,1
-1333.7619919397227,-91.78237788865286,202.90450029590713,285589.45656325144,88416.64020376556,125416.15925440543,8,825,2531,1
-1343.3444163746622,-87.96981315265027,202.60865369862438,286878.8438869838,87734.2185639585,121831.80316137907,2,822,2547,1
-1351.8855244512686,-84.35043183455889,201.33863029068382,288251.100552903,87106.77969387385,118172.63266135452,0,823,2566,1
-1359.246102218873,-81.00261027072197,199.05557190112495,289695.8217983287,86538.5817728681,114453.74442699546,0,805,2594,1
-1365.275506595095,-78.01330906307831,195.73064330744032,291199.04384736536,86034.27201224162,110693.57894594058,1,806,2556,1
-1369.812461056973,-75.47594273776157,191.3522314292378,292743.2048488,85599.44102660051,106914.05796488066,2,814,2560,1
-1372.6873023080407,-73.48607009905496,185.93284373614944,294307.13561125717,85240.93430779324,103140.51744921153,0,776,2571,1
-1373.7244939740547,-72.138112090222,179.5135120879472,295866.0939924063,84966.9179239164,99401.58528458241,0,787,2560,1
-1372.745282751127,-71.52646405197888,172.16418608192168,297391.9657906246,84786.77428219549,95729.10491024813,0,840,2527,1
-1369.5717391857775,-71.75104897161047,163.98147258946264,298853.8245729283,84710.98882089576,92157.95070930212,0,899,2471,1
-1364.0331045100081,-72.92348889205327,155.08625034353332,300218.75493825274,84751.13690862722,88725.84806473072,0,980,2370,1
-1355.9767434314501,-75.16791503147329,145.62069735588284,301453.0772163897,84919.856453284,85473.25011067394,0,1135,2238,1
-1345.284608461622,-78.61186768206566,135.74202811386346,302524.35444481554,85230.5776446264,82442.98126682293,0,1281,2107,1
-1331.8894098144126,-83.369241606622,125.61388805225138,303403.8294391141,85696.94017535954,79679.6237076922,0,1375,2030,1
-1315.784061710206,-89.51855812397918,115.39766178907189,304069.0198382961,86331.82628848121,77228.55238193857,0,1457,1962,1
-1297.0231734607278,-97.07639455313769,105.24328615705458,304506.629301686,87145.96324354524,75134.36152263099,0,1605,1814,1
-1275.7168008908045,-105.97207507640576,95.28148900419484,304715.01210360345,88146.54612990603,73439.17845806314,0,1732,1727,1
-1252.013528619658,-116.03360916865398,85.62087642313108,304705.3299158566,89336.44023640302,72181.44501234594,5,1784,1663,1
-1226.0735441963632,-126.98662120962874,76.34945248554156,304501.59919347725,90713.9774661087,71395.10674403034,0,1836,1619,1
-1198.044152187127,-138.4629212262414,67.5379642907591,304140.004198289,92273.08283422876,71109.30261547871,1,1858,1603,1
-1168.0473889898567,-150.02028739187722,59.2438348682397,303667.3021763306,94003.64914083175,71348.80766407812,0,1846,1603,1
-1136.1766290521193,-161.1753041641239,51.51668579984776,303138.26369651005,95892.14354206074,72135.00755904819,2,1840,1597,1
-1102.4996131133337,-171.43970835168432,44.40462004025404,302612.87027073797,97922.18223300317,73486.8029570657,0,1864,1585,1
-1067.0703548119945,-180.35411763169017,37.95655466246201,302153.3524325504,100074.98631698135,75421.06180296632,4,1879,1567,1
-1029.9489995307986,-187.52390129928514,32.21870535413538,301820.42132884637,102330.00156923167,77952.6611295715,0,1906,1541,1
-991.2223256597338,-192.65063427749052,27.228880706088724,301669.4507802601,104665.75496924584,81094.16087200184,0,1903,1537,1
-951.0187150024992,-195.54821111941473,23.011669490057123,301747.6479503416,107061.18075501126,84855.01075805706,0,1899,1542,1
-909.5175453604056,-196.14544933358974,19.57561110801719,302092.0243789221,109497.7256889325,89240.33266428165,0,1909,1527,1
-866.9529098517663,-194.4763461571861,16.91546350935095,302728.18511683634,111961.52581427144,94249.62019811943,0,2002,1458,2
-823.6114902722296,-190.65781764439777,15.021413962619327,303670.3271748163,114444.79021774244,99875.85471433074,0,2004,1457,2
-779.8286043457836,-184.86447376306677,13.890667720891702,304922.2101335163,116946.3487411368,106105.27505935845,0,2010,1452,2
-735.982633630715,-177.30612357023102,13.535712416428296,306478.4545275103,119471.27599843696,112917.59712891172,0,2007,1455,2
-692.4839052867108,-168.20476250284776,13.98798609690035,308325.8509694234,122029.41202275104,120286.47394607945,0,2011,1453,2
-649.7613348530001,-157.7744934144542,15.297052934537366,310444.6988314817,124633.17923195272,128180.14174474518,0,2012,1454,2
-608.250077035018,-146.2097712344853,17.523472665876604,312810.2786468935,127295.24304308984,136562.4021359878,0,2012,1451,2
-568.3774566349264,-133.6795035325769,20.72503261205913,315394.50821192993,130026.35294813394,145394.04522569393,0,2010,1451,2
-530.5501536340471,-120.32430187868465,24.942007032600134,318167.4049215824,132833.8790318757,154634.0119139712,0,2005,1453,2
-495.1459258878863,-106.25603148338004,30.18852832612205,321098.27026090416,135721.5342410478,164239.90909763036,0,2008,1454,2
-462.50623555379894,-91.5583304717221,36.45213741980066,324157.06359464914,138690.13585702173,174168.46610867765,0,2010,1451,2
-432.929966873623,-76.2892930255794,43.69934161258189,327315.72075054294,141738.65608374611,184375.90022748068,0,2006,1451,2
-406.6714427522575,-60.49050183000963,51.88470527988064,330548.9044867607,144865.0570937147,194818.04987851655,0,2009,1452,2
-383.9423818017511,-44.20381547520897,60.96180621741926,333834.3096597666,148066.94674167913,205450.72786110002,0,2010,1451,2
-364.9168442111891,-27.48947416559255,70.8915010855909,337152.6203512403,151341.90720776617,216230.02521757258,0,2010,1452,2
-349.73770150040866,-10.437948959768688,81.64191308679857,340487.1525995965,154687.31710738802,227112.27461109933,0,2008,1453,2
-338.52168711927504,6.824974964125739,93.18063220728855,343823.48350925616,158099.89018351008,238054.0834939935,0,2009,1452,2
-331.3608547675959,24.13809364423757,105.46691375599639,347149.22141428594,161575.20483027623,249012.31942376686,0,2009,1451,2
-328.3195892576905,41.31165317133998,118.45468659576026,350453.9272119803,165107.53584311166,259944.07461491312,0,2009,1453,2
-329.4285561971776,58.140998234142856,132.10961921871976,353729.2127428039,168690.19248717753,270807.15900272946,0,2010,1451,2
-334.6797675995775,74.41986391974564,146.42918034117864,356968.76405515266,172315.88945142657,281560.71254788566,0,2010,1452,2
-344.02538130964564,89.94939051726166,161.45156214730596,360167.96829824225,175976.38622968513,292165.6008674479,0,2010,1451,2
-357.3783082999542,104.54544814336509,177.2490880941296,363323.20020249195,179661.2596954463,302585.11784779665,0,2009,1452,2
-374.612174743003,118.04429961329348,193.9121221252619,366431.08685430884,183356.42393177038,312785.6851813574,0,2009,1452,2
-395.5614741475597,130.30602457149837,211.53220748587717,369488.02711948403,187043.23467847673,322737.1032642851,0,2008,1452,2
-420.0229942151875,141.2178414064696,230.18772427244414,372489.9030329495,190698.51418617135,332412.7349987933,0,2010,1452,2
-447.75754966163834,150.69766447443325,249.93214135656237,375431.6407582237,194295.0935317489,341789.5123048765,0,2009,1451,2
-478.4930951736716,158.69763927352483,270.78518183680336,378306.4474741604,197802.59805450632,350847.61569915945,0,2009,1454,2
-511.9305010401302,165.20795390744692,292.72650327770435,381104.84670076956,201188.58261592002,359570.2378887023,0,2008,1453,2
-547.7489700123325,170.258540339287,315.6920632240773,383813.72404531436,204419.73791644938,367943.31126820727,0,2009,1451,2
-585.6110651749847,173.91438339258903,339.5739512053779,386415.4745535955,207463.09571768984,375955.06688054465,0,2008,1452,2
-625.1710048218049,176.26302591554943,364.2228709481866,388887.23650724057,210287.59586576253,383595.82102157664,0,2007,1451,2
-666.0839395465225,177.39843439022965,389.45071188036036,391200.3361403225,212865.6160374744,390857.91959389293,0,2008,1451,2
-708.013647307127,177.40484933128477,415.0336968014346,393320.3277506194,215173.9731028219,397735.66514780564,0,2007,1454,2
-750.6405000271968,176.34101708522815,440.71898380017956,395207.82792058494,217194.6568090057,404225.4084376907,0,2008,1453,2
-793.6672962334632,174.22872256528137,466.2332167085399,396819.7641210489,218915.36320562498,410325.5463906548,0,2007,1453,2
-836.8205107407645,171.0500963397165,491.2920197312576,398110.94809784915,220329.66429617896,416036.1491866979,0,2006,1453,2
-879.8502512697277,166.75183084964678,515.6124751192973,399036.28790286666,221436.90555928234,421358.46281345177,0,2008,1452,2
-922.530198842207,161.25174403488586,538.9253100052491,399553.16538326966,222241.8536251386,426294.3850624407,0,2008,1452,2
-964.6567554696072,154.44625524598797,560.9833843638977,399623.54012257495,222753.88627205364,430845.90774110804,0,2008,1452,2
-1006.0481036842134,146.21923202867094,581.5685717487854,399216.0741023693,222985.66498457748,435014.6796056971,0,2008,1452,2
-1046.5421372465778,136.45012720087033,600.4964557977991,398308.02072500926,222951.68012236262,438801.6261120247,0,2008,1452,2
-1085.9928871866837,125.01907404698824,617.6161710884214,396886.42173168395,222666.94047772474,442206.49328388565,0,2007,1452,2
-1124.2677139773816,111.80994218354712,632.8062980411911,394948.8280797624,222145.72321123193,445227.39030485175,0,2007,1454,2
-1161.245230470178,96.71326706512322,645.9694953278427,392503.7473648628,221400.60717046374,447860.36096475506,0,2008,1453,2
-1196.812765975162,79.63025578138004,657.0282793209187,389570.6779511494,220442.07221697224,450098.9729521611,0,2008,1453,2
-1230.8642143878938,60.478534757644056,665.9230294904182,386179.68695156416,219278.50867801186,451933.99497651367,0,2005,1453,2
-1263.2981836285076,39.19896376081556,672.6116073509677,382370.7790471981,217916.43180486478,453353.16145889636,0,2007,1453,2
-1294.0160543100953,15.762555846185158,677.0703072485211,378192.95655673824,216360.89242938772,454341.01483900513,0,2007,1453,2
-1322.9210137781113,-9.822645476827288,679.2964290457733,373702.3264807715,214616.1257142014,454878.94224314584,0,2006,1453,2
-1349.9176985142462,-37.505409144106544,679.3115136169246,368959.3913280351,212686.373067674,454945.450343916,0,2008,1453,3
-1374.911863247947,-67.18747498228815,677.1643176542499,364026.6458802689,210576.6794339852,454516.5598476523,0,2008,1453,3
-1397.8107130572996,-98.72241393195085,672.9339244753342,358966.6501856624,208293.50171863864,453566.349500152,0,2008,1447,3
-1418.5230484310052,-131.91541730851625,666.7325516579781,353839.8737946351,205845.09791205026,452067.78987451486,0,2008,1452,3
-1436.9594038010034,-166.52447488449434,658.706003380443,348702.6787655816,203241.73388149383,449993.7411943539,0,2005,1456,3
-1453.0346757314255,-202.26591523132035,649.0303778687847,343605.9593398141,200495.63062928492,447317.98499323125,0,2006,1455,3
-1466.672951735964,-238.82263259321343,637.9060165139912,338594.0800940986,197620.5687767089,444016.3571762116,0,2010,1451,3
-1477.8119870580522,-275.8511912203163,625.5493671183315,333704.22641958605,194631.37256620024,440067.8710661191,0,2008,1457,3
-1486.4054575737814,-312.98648203592717,612.1829468151079,328966.4969025809,191543.3672224782,435455.65435883903,0,2007,1454,3
-1492.4224262515331,-349.8428400001155,598.026063625321,324404.44944768277,188371.63720504273,430167.76925787923,0,2008,1456,3
-1495.8475272548326,-386.0148998401428,583.2865980541534,320035.872300104,185130.28997456114,424198.0350750683,0,1989,1468,3
-1496.6860377713185,-421.08315905937354,568.1519243985435,315873.79308553087,181831.8898380613,417546.7412506742,0,1969,1486,3
-1494.971845595978,-454.62043872905974,552.781967146377,311927.6270594851,178486.8817967039,410221.08617080277,0,1969,1486,3
-1490.7733437660665,-486.1921154285428,537.3075928222883,308204.2573746473,175103.1663202397,402235.47961667017,0,1950,1503,3
-1484.1951827007952,-515.3491046572115,521.8325896118208,304708.7589445421,171685.9697293671,393611.72388521826,0,1953,1500,3
-1475.3763603416296,-541.6171836720305,506.4359801613907,301444.54411587265,168237.76646373057,384378.91002734867,0,1919,1528,3
-1464.486636189189,-564.4893376793918,491.1705351486967,298412.98317205365,164758.31610271803,374573.4235424237,0,1921,1529,3
-1451.7251355760059,-583.4281932175128,476.0551146769554,295612.4364585913,161245.31319135742,364239.3128517481,0,1934,1516,3
-1437.3221387909093,-597.8792628899783,461.0665166473641,293036.6597730304,157695.9740822308,353428.64021394536,0,1935,1521,3
-1421.5358726826032,-607.2937496233006,446.1402134981427,290673.34634112555,154109.2778402677,342201.78127129533,0,1936,1514,3
-1404.63639736693,-611.1596880380912,431.1814815879362,288503.5207015089,150488.39536446318,330627.54489032965,0,1951,1499,3
-1386.8864946644014,-609.0339866662167,416.0805768466334,286501.7042516332,146843.05344931953,318782.76367221994,0,1947,1507,3
-1368.5365044442062,-600.5720500743523,400.73135953833685,284636.9560503458,143191.2471556384,306751.87459464546,0,1941,1511,3
-1349.830603249353,-585.5549119822017,385.05926670967193,282874.8940126414,139559.7099554487,294626.9384101593,0,1943,1506,3
-1331.0103070575196,-563.9063328605151,369.04863830044764,281179.9295720816,135983.10423759054,282507.4944966962,0,1947,1500,3
-1312.3106607271777,-535.7003488635547,352.7448307270791,279517.1030601571,132501.3761924867,270498.90429836576,0,1961,1490,3
-1293.9526372359546,-501.170586568702,336.22899247294987,277853.74721049855,129155.03905069336,258708.6013350213,0,1963,1490,3
-1276.1362890512933,-460.72309380168986,319.59059601411667,276160.8766829945,125980.63906485664,247242.08670114118,0,1962,1491,3
-1259.0357028002522,-414.9408408469506,302.9139639226399,274413.6577812082,123008.83345675962,236199.88168040736,0,1960,1495,3
-1242.793586334127,-364.5709689138872,286.2754915170384,272590.90480027994,120264.85269892788,225674.41297121564,0,1958,1494,3
-1227.51675005468,-310.50245381020886,269.74743836916167,270674.32056055893,117769.89479774259,215747.19140113288,0,1953,1497,3
-1213.2746077867544,-253.7456340389,253.4089278794204,268647.92686049483,115542.39087109016,206487.20126966145,0,1962,1493,3
-1200.099054605956,-195.41638709330857,237.3609520674371,266497.48550144193,113598.63577276107,197949.8631429861,0,1962,1491,3
